[{"success":true,"trial_type":"fullscreen","trial_index":0,"time_elapsed":13259,"internal_node_id":"0.0-0.0","subject":1,"condition":"FIXME","exp_id":"outcome-response-priming-task","full_screen":true,"focus_shifts":1},{"rt":1235,"stimulus":"<p>In this part of the experiment, you will see a dot on a coloured screen.</p><p>Move the dot past the line on the left or right as fast as you can to win rewards.</p><p>Press any key to begin.</p>","key_press":13,"phase":"learn","trial_type":"html-keyboard-response","trial_index":1,"time_elapsed":14499,"internal_node_id":"0.0-1.0-0.0","subject":1,"condition":"FIXME","exp_id":"outcome-response-priming-task","full_screen":true,"focus_shifts":0,"block":1},{"rt":null,"prompt":"<div id=\"iti-prompt\">Keep the dot within the square.</div>","direction":"","range":20,"phase":"learn","trial_type":"html-mouse-response","trial_index":2,"time_elapsed":17259,"internal_node_id":"0.0-1.0-1.0-0.0","subject":1,"condition":"FIXME","correct":"","exp_id":"outcome-response-priming-task","full_screen":true,"focus_shifts":0,"block":1},{"rt":null,"prompt":null,"direction":"left","range":300,"phase":"learn","stimulus":"orange","outcome":"chocolate","correct_response":"left","trial_type":"html-mouse-response","trial_index":3,"time_elapsed":18635,"internal_node_id":"0.0-1.0-1.0-1.0","subject":1,"condition":"FIXME","correct":true,"exp_id":"outcome-response-priming-task","full_screen":true,"focus_shifts":0,"block":1},{"rt":null,"stimulus":"img/chocolate.jpg","key_press":null,"phase":"learn","correct":true,"trial_type":"image-keyboard-response","trial_index":4,"time_elapsed":21644,"internal_node_id":"0.0-1.0-1.0-2.0-0.0","subject":1,"condition":"FIXME","exp_id":"outcome-response-priming-task","full_screen":true,"focus_shifts":0,"block":1},{"rt":null,"prompt":"<div id=\"iti-prompt\">Keep the dot within the square.</div>","direction":"","range":20,"phase":"learn","trial_type":"html-mouse-response","trial_index":5,"time_elapsed":22148,"internal_node_id":"0.0-1.0-1.0-0.1","subject":1,"condition":"FIXME","correct":"","exp_id":"outcome-response-priming-task","full_screen":true,"focus_shifts":0,"block":1},{"rt":null,"prompt":null,"direction":"right","range":300,"phase":"learn","stimulus":"blue","outcome":"crisp","correct_response":"right","trial_type":"html-mouse-response","trial_index":6,"time_elapsed":23909,"internal_node_id":"0.0-1.0-1.0-1.1","subject":1,"condition":"FIXME","correct":true,"exp_id":"outcome-response-priming-task","full_screen":true,"focus_shifts":0,"block":1},{"rt":null,"stimulus":"img/crisp.jpg","key_press":null,"phase":"learn","correct":true,"trial_type":"image-keyboard-response","trial_index":7,"time_elapsed":26914,"internal_node_id":"0.0-1.0-1.0-2.1-0.1","subject":1,"condition":"FIXME","exp_id":"outcome-response-priming-task","full_screen":true,"focus_shifts":0,"block":1},{"rt":null,"prompt":"<div id=\"iti-prompt\">Keep the dot within the square.</div>","direction":"","range":20,"phase":"learn","trial_type":"html-mouse-response","trial_index":8,"time_elapsed":27921,"internal_node_id":"0.0-1.0-1.0-0.2","subject":1,"condition":"FIXME","correct":"","exp_id":"outcome-response-priming-task","full_screen":true,"focus_shifts":0,"block":1},{"rt":null,"prompt":null,"direction":"left","range":300,"phase":"learn","stimulus":"orange","outcome":"chocolate","correct_response":"left","trial_type":"html-mouse-response","trial_index":9,"time_elapsed":30139,"internal_node_id":"0.0-1.0-1.0-1.2","subject":1,"condition":"FIXME","correct":true,"exp_id":"outcome-response-priming-task","full_screen":true,"focus_shifts":0,"block":1},{"rt":null,"stimulus":"img/chocolate.jpg","key_press":null,"phase":"learn","correct":true,"trial_type":"image-keyboard-response","trial_index":10,"time_elapsed":33145,"internal_node_id":"0.0-1.0-1.0-2.2-0.2","subject":1,"condition":"FIXME","exp_id":"outcome-response-priming-task","full_screen":true,"focus_shifts":0,"block":1},{"rt":null,"prompt":"<div id=\"iti-prompt\">Keep the dot within the square.</div>","direction":"","range":20,"phase":"learn","trial_type":"html-mouse-response","trial_index":11,"time_elapsed":34150,"internal_node_id":"0.0-1.0-1.0-0.3","subject":1,"condition":"FIXME","correct":"","exp_id":"outcome-response-priming-task","full_screen":true,"focus_shifts":0,"block":1},{"rt":null,"prompt":null,"direction":"left","range":300,"phase":"learn","stimulus":"orange","outcome":"chocolate","correct_response":"left","trial_type":"html-mouse-response","trial_index":12,"time_elapsed":34980,"internal_node_id":"0.0-1.0-1.0-1.3","subject":1,"condition":"FIXME","correct":true,"exp_id":"outcome-response-priming-task","full_screen":true,"focus_shifts":0,"block":1},{"rt":null,"stimulus":"img/chocolate.jpg","key_press":null,"phase":"learn","correct":true,"trial_type":"image-keyboard-response","trial_index":13,"time_elapsed":37983,"internal_node_id":"0.0-1.0-1.0-2.3-0.3","subject":1,"condition":"FIXME","exp_id":"outcome-response-priming-task","full_screen":true,"focus_shifts":0,"block":1},{"rt":null,"prompt":"<div id=\"iti-prompt\">Keep the dot within the square.</div>","direction":"","range":20,"phase":"learn","trial_type":"html-mouse-response","trial_index":14,"time_elapsed":39735,"internal_node_id":"0.0-1.0-1.0-0.4","subject":1,"condition":"FIXME","correct":"","exp_id":"outcome-response-priming-task","full_screen":true,"focus_shifts":0,"block":1},{"rt":null,"prompt":null,"direction":"right","range":300,"phase":"learn","stimulus":"blue","outcome":"crisp","correct_response":"right","trial_type":"html-mouse-response","trial_index":15,"time_elapsed":40507,"internal_node_id":"0.0-1.0-1.0-1.4","subject":1,"condition":"FIXME","correct":true,"exp_id":"outcome-response-priming-task","full_screen":true,"focus_shifts":0,"block":1},{"rt":null,"stimulus":"img/crisp.jpg","key_press":null,"phase":"learn","correct":true,"trial_type":"image-keyboard-response","trial_index":16,"time_elapsed":43509,"internal_node_id":"0.0-1.0-1.0-2.4-0.4","subject":1,"condition":"FIXME","exp_id":"outcome-response-priming-task","full_screen":true,"focus_shifts":0,"block":1},{"rt":null,"prompt":"<div id=\"iti-prompt\">Keep the dot within the square.</div>","direction":"","range":20,"phase":"learn","trial_type":"html-mouse-response","trial_index":17,"time_elapsed":43763,"internal_node_id":"0.0-1.0-1.0-0.5","subject":1,"condition":"FIXME","correct":"","exp_id":"outcome-response-priming-task","full_screen":true,"focus_shifts":0,"block":1},{"rt":null,"prompt":null,"direction":"right","range":300,"phase":"learn","stimulus":"orange","outcome":"chocolate","correct_response":"left","trial_type":"html-mouse-response","trial_index":18,"time_elapsed":43780,"internal_node_id":"0.0-1.0-1.0-1.5","subject":1,"condition":"FIXME","correct":false,"exp_id":"outcome-response-priming-task","full_screen":true,"focus_shifts":0,"block":1},{"rt":null,"stimulus":"img/incorrect.jpg","key_press":null,"phase":"learn","correct":false,"trial_type":"image-keyboard-response","trial_index":19,"time_elapsed":46784,"internal_node_id":"0.0-1.0-1.0-3.5-0.5","subject":1,"condition":"FIXME","exp_id":"outcome-response-priming-task","full_screen":true,"focus_shifts":0,"block":1},{"rt":null,"prompt":"<div id=\"iti-prompt\">Keep the dot within the square.</div>","direction":"","range":20,"phase":"learn","trial_type":"html-mouse-response","trial_index":20,"time_elapsed":48037,"internal_node_id":"0.0-1.0-1.0-0.6","subject":1,"condition":"FIXME","correct":"","exp_id":"outcome-response-priming-task","full_screen":true,"focus_shifts":0,"block":1},{"rt":null,"prompt":null,"direction":"left","range":300,"phase":"learn","stimulus":"orange","outcome":"chocolate","correct_response":"left","trial_type":"html-mouse-response","trial_index":21,"time_elapsed":48909,"internal_node_id":"0.0-1.0-1.0-1.6","subject":1,"condition":"FIXME","correct":true,"exp_id":"outcome-response-priming-task","full_screen":true,"focus_shifts":0,"block":1},{"rt":null,"stimulus":"img/chocolate.jpg","key_press":null,"phase":"learn","correct":true,"trial_type":"image-keyboard-response","trial_index":22,"time_elapsed":51914,"internal_node_id":"0.0-1.0-1.0-2.6-0.6","subject":1,"condition":"FIXME","exp_id":"outcome-response-priming-task","full_screen":true,"focus_shifts":0,"block":1},{"rt":null,"prompt":"<div id=\"iti-prompt\">Keep the dot within the square.</div>","direction":"","range":20,"phase":"learn","trial_type":"html-mouse-response","trial_index":23,"time_elapsed":53167,"internal_node_id":"0.0-1.0-1.0-0.7","subject":1,"condition":"FIXME","correct":"","exp_id":"outcome-response-priming-task","full_screen":true,"focus_shifts":0,"block":1},{"rt":null,"prompt":null,"direction":"left","range":300,"phase":"learn","stimulus":"orange","outcome":"chocolate","correct_response":"left","trial_type":"html-mouse-response","trial_index":24,"time_elapsed":54860,"internal_node_id":"0.0-1.0-1.0-1.7","subject":1,"condition":"FIXME","correct":true,"exp_id":"outcome-response-priming-task","full_screen":true,"focus_shifts":0,"block":1},{"rt":null,"stimulus":"img/chocolate.jpg","key_press":null,"phase":"learn","correct":true,"trial_type":"image-keyboard-response","trial_index":25,"time_elapsed":57862,"internal_node_id":"0.0-1.0-1.0-2.7-0.7","subject":1,"condition":"FIXME","exp_id":"outcome-response-priming-task","full_screen":true,"focus_shifts":0,"block":1},{"rt":null,"prompt":"<div id=\"iti-prompt\">Keep the dot within the square.</div>","direction":"","range":20,"phase":"learn","trial_type":"html-mouse-response","trial_index":26,"time_elapsed":58614,"internal_node_id":"0.0-1.0-1.0-0.8","subject":1,"condition":"FIXME","correct":"","exp_id":"outcome-response-priming-task","full_screen":true,"focus_shifts":0,"block":1},{"rt":null,"prompt":null,"direction":"left","range":300,"phase":"learn","stimulus":"orange","outcome":"chocolate","correct_response":"left","trial_type":"html-mouse-response","trial_index":27,"time_elapsed":59483,"internal_node_id":"0.0-1.0-1.0-1.8","subject":1,"condition":"FIXME","correct":true,"exp_id":"outcome-response-priming-task","full_screen":true,"focus_shifts":0,"block":1},{"rt":null,"stimulus":"img/chocolate.jpg","key_press":null,"phase":"learn","correct":true,"trial_type":"image-keyboard-response","trial_index":28,"time_elapsed":62486,"internal_node_id":"0.0-1.0-1.0-2.8-0.8","subject":1,"condition":"FIXME","exp_id":"outcome-response-priming-task","full_screen":true,"focus_shifts":0,"block":1},{"rt":null,"prompt":"<div id=\"iti-prompt\">Keep the dot within the square.</div>","direction":"","range":20,"phase":"learn","trial_type":"html-mouse-response","trial_index":29,"time_elapsed":63239,"internal_node_id":"0.0-1.0-1.0-0.9","subject":1,"condition":"FIXME","correct":"","exp_id":"outcome-response-priming-task","full_screen":true,"focus_shifts":0,"block":1},{"rt":null,"prompt":null,"direction":"right","range":300,"phase":"learn","stimulus":"blue","outcome":"crisp","correct_response":"right","trial_type":"html-mouse-response","trial_index":30,"time_elapsed":64900,"internal_node_id":"0.0-1.0-1.0-1.9","subject":1,"condition":"FIXME","correct":true,"exp_id":"outcome-response-priming-task","full_screen":true,"focus_shifts":0,"block":1},{"rt":null,"stimulus":"img/crisp.jpg","key_press":null,"phase":"learn","correct":true,"trial_type":"image-keyboard-response","trial_index":31,"time_elapsed":67908,"internal_node_id":"0.0-1.0-1.0-2.9-0.9","subject":1,"condition":"FIXME","exp_id":"outcome-response-priming-task","full_screen":true,"focus_shifts":0,"block":1},{"rt":null,"prompt":"<div id=\"iti-prompt\">Keep the dot within the square.</div>","direction":"","range":20,"phase":"learn","trial_type":"html-mouse-response","trial_index":32,"time_elapsed":68665,"internal_node_id":"0.0-1.0-1.0-0.10","subject":1,"condition":"FIXME","correct":"","exp_id":"outcome-response-priming-task","full_screen":true,"focus_shifts":0,"block":1},{"rt":null,"prompt":null,"direction":"left","range":300,"phase":"learn","stimulus":"orange","outcome":"chocolate","correct_response":"left","trial_type":"html-mouse-response","trial_index":33,"time_elapsed":69558,"internal_node_id":"0.0-1.0-1.0-1.10","subject":1,"condition":"FIXME","correct":true,"exp_id":"outcome-response-priming-task","full_screen":true,"focus_shifts":0,"block":1},{"rt":null,"stimulus":"img/chocolate.jpg","key_press":null,"phase":"learn","correct":true,"trial_type":"image-keyboard-response","trial_index":34,"time_elapsed":72565,"internal_node_id":"0.0-1.0-1.0-2.10-0.10","subject":1,"condition":"FIXME","exp_id":"outcome-response-priming-task","full_screen":true,"focus_shifts":0,"block":1},{"rt":null,"prompt":"<div id=\"iti-prompt\">Keep the dot within the square.</div>","direction":"","range":20,"phase":"learn","trial_type":"html-mouse-response","trial_index":35,"time_elapsed":74320,"internal_node_id":"0.0-1.0-1.0-0.11","subject":1,"condition":"FIXME","correct":"","exp_id":"outcome-response-priming-task","full_screen":true,"focus_shifts":0,"block":1},{"rt":null,"prompt":null,"direction":"right","range":300,"phase":"learn","stimulus":"blue","outcome":"crisp","correct_response":"right","trial_type":"html-mouse-response","trial_index":36,"time_elapsed":74338,"internal_node_id":"0.0-1.0-1.0-1.11","subject":1,"condition":"FIXME","correct":true,"exp_id":"outcome-response-priming-task","full_screen":true,"focus_shifts":0,"block":1},{"rt":null,"stimulus":"img/crisp.jpg","key_press":null,"phase":"learn","correct":true,"trial_type":"image-keyboard-response","trial_index":37,"time_elapsed":77343,"internal_node_id":"0.0-1.0-1.0-2.11-0.11","subject":1,"condition":"FIXME","exp_id":"outcome-response-priming-task","full_screen":true,"focus_shifts":0,"block":1},{"rt":null,"prompt":"<div id=\"iti-prompt\">Keep the dot within the square.</div>","direction":"","range":20,"phase":"learn","trial_type":"html-mouse-response","trial_index":38,"time_elapsed":78600,"internal_node_id":"0.0-1.0-1.0-0.12","subject":1,"condition":"FIXME","correct":"","exp_id":"outcome-response-priming-task","full_screen":true,"focus_shifts":0,"block":1},{"rt":null,"prompt":null,"direction":"right","range":300,"phase":"learn","stimulus":"blue","outcome":"crisp","correct_response":"right","trial_type":"html-mouse-response","trial_index":39,"time_elapsed":85327,"internal_node_id":"0.0-1.0-1.0-1.12","subject":1,"condition":"FIXME","correct":true,"exp_id":"outcome-response-priming-task","full_screen":true,"focus_shifts":0,"block":1},{"rt":null,"stimulus":"img/crisp.jpg","key_press":null,"phase":"learn","correct":true,"trial_type":"image-keyboard-response","trial_index":40,"time_elapsed":88331,"internal_node_id":"0.0-1.0-1.0-2.12-0.12","subject":1,"condition":"FIXME","exp_id":"outcome-response-priming-task","full_screen":true,"focus_shifts":0,"block":1},{"rt":null,"prompt":"<div id=\"iti-prompt\">Keep the dot within the square.</div>","direction":"","range":20,"phase":"learn","trial_type":"html-mouse-response","trial_index":41,"time_elapsed":88585,"internal_node_id":"0.0-1.0-1.0-0.13","subject":1,"condition":"FIXME","correct":"","exp_id":"outcome-response-priming-task","full_screen":true,"focus_shifts":0,"block":1},{"rt":null,"prompt":null,"direction":"left","range":300,"phase":"learn","stimulus":"orange","outcome":"chocolate","correct_response":"left","trial_type":"html-mouse-response","trial_index":42,"time_elapsed":89439,"internal_node_id":"0.0-1.0-1.0-1.13","subject":1,"condition":"FIXME","correct":true,"exp_id":"outcome-response-priming-task","full_screen":true,"focus_shifts":0,"block":1},{"rt":null,"stimulus":"img/chocolate.jpg","key_press":null,"phase":"learn","correct":true,"trial_type":"image-keyboard-response","trial_index":43,"time_elapsed":92442,"internal_node_id":"0.0-1.0-1.0-2.13-0.13","subject":1,"condition":"FIXME","exp_id":"outcome-response-priming-task","full_screen":true,"focus_shifts":0,"block":1},{"rt":null,"prompt":"<div id=\"iti-prompt\">Keep the dot within the square.</div>","direction":"","range":20,"phase":"learn","trial_type":"html-mouse-response","trial_index":44,"time_elapsed":93695,"internal_node_id":"0.0-1.0-1.0-0.14","subject":1,"condition":"FIXME","correct":"","exp_id":"outcome-response-priming-task","full_screen":true,"focus_shifts":0,"block":1},{"rt":null,"prompt":null,"direction":"left","range":300,"phase":"learn","stimulus":"orange","outcome":"chocolate","correct_response":"left","trial_type":"html-mouse-response","trial_index":45,"time_elapsed":95607,"internal_node_id":"0.0-1.0-1.0-1.14","subject":1,"condition":"FIXME","correct":true,"exp_id":"outcome-response-priming-task","full_screen":true,"focus_shifts":0,"block":1},{"rt":null,"stimulus":"img/chocolate.jpg","key_press":null,"phase":"learn","correct":true,"trial_type":"image-keyboard-response","trial_index":46,"time_elapsed":98611,"internal_node_id":"0.0-1.0-1.0-2.14-0.14","subject":1,"condition":"FIXME","exp_id":"outcome-response-priming-task","full_screen":true,"focus_shifts":0,"block":1},{"rt":null,"prompt":"<div id=\"iti-prompt\">Keep the dot within the square.</div>","direction":"","range":20,"phase":"learn","trial_type":"html-mouse-response","trial_index":47,"time_elapsed":99115,"internal_node_id":"0.0-1.0-1.0-0.15","subject":1,"condition":"FIXME","correct":"","exp_id":"outcome-response-priming-task","full_screen":true,"focus_shifts":0,"block":1},{"rt":null,"prompt":null,"direction":"right","range":300,"phase":"learn","stimulus":"blue","outcome":"crisp","correct_response":"right","trial_type":"html-mouse-response","trial_index":48,"time_elapsed":101120,"internal_node_id":"0.0-1.0-1.0-1.15","subject":1,"condition":"FIXME","correct":true,"exp_id":"outcome-response-priming-task","full_screen":true,"focus_shifts":0,"block":1},{"rt":null,"stimulus":"img/crisp.jpg","key_press":null,"phase":"learn","correct":true,"trial_type":"image-keyboard-response","trial_index":49,"time_elapsed":104122,"internal_node_id":"0.0-1.0-1.0-2.15-0.15","subject":1,"condition":"FIXME","exp_id":"outcome-response-priming-task","full_screen":true,"focus_shifts":0,"block":1},{"rt":null,"prompt":"<div id=\"iti-prompt\">Keep the dot within the square.</div>","direction":"","range":20,"phase":"learn","trial_type":"html-mouse-response","trial_index":50,"time_elapsed":105124,"internal_node_id":"0.0-1.0-1.0-0.16","subject":1,"condition":"FIXME","correct":"","exp_id":"outcome-response-priming-task","full_screen":true,"focus_shifts":0,"block":1},{"rt":null,"prompt":null,"direction":"right","range":300,"phase":"learn","stimulus":"blue","outcome":"crisp","correct_response":"right","trial_type":"html-mouse-response","trial_index":51,"time_elapsed":106040,"internal_node_id":"0.0-1.0-1.0-1.16","subject":1,"condition":"FIXME","correct":true,"exp_id":"outcome-response-priming-task","full_screen":true,"focus_shifts":0,"block":1},{"rt":null,"stimulus":"img/crisp.jpg","key_press":null,"phase":"learn","correct":true,"trial_type":"image-keyboard-response","trial_index":52,"time_elapsed":109043,"internal_node_id":"0.0-1.0-1.0-2.16-0.16","subject":1,"condition":"FIXME","exp_id":"outcome-response-priming-task","full_screen":true,"focus_shifts":0,"block":1},{"rt":null,"prompt":"<div id=\"iti-prompt\">Keep the dot within the square.</div>","direction":"","range":20,"phase":"learn","trial_type":"html-mouse-response","trial_index":53,"time_elapsed":111045,"internal_node_id":"0.0-1.0-1.0-0.17","subject":1,"condition":"FIXME","correct":"","exp_id":"outcome-response-priming-task","full_screen":true,"focus_shifts":0,"block":1},{"rt":null,"prompt":null,"direction":"right","range":300,"phase":"learn","stimulus":"blue","outcome":"crisp","correct_response":"right","trial_type":"html-mouse-response","trial_index":54,"time_elapsed":111063,"internal_node_id":"0.0-1.0-1.0-1.17","subject":1,"condition":"FIXME","correct":true,"exp_id":"outcome-response-priming-task","full_screen":true,"focus_shifts":0,"block":1},{"rt":null,"stimulus":"img/crisp.jpg","key_press":null,"phase":"learn","correct":true,"trial_type":"image-keyboard-response","trial_index":55,"time_elapsed":114067,"internal_node_id":"0.0-1.0-1.0-2.17-0.17","subject":1,"condition":"FIXME","exp_id":"outcome-response-priming-task","full_screen":true,"focus_shifts":0,"block":1},{"rt":null,"prompt":"<div id=\"iti-prompt\">Keep the dot within the square.</div>","direction":"","range":20,"phase":"learn","trial_type":"html-mouse-response","trial_index":56,"time_elapsed":115069,"internal_node_id":"0.0-1.0-1.0-0.18","subject":1,"condition":"FIXME","correct":"","exp_id":"outcome-response-priming-task","full_screen":true,"focus_shifts":0,"block":1},{"rt":null,"prompt":null,"direction":"right","range":300,"phase":"learn","stimulus":"blue","outcome":"crisp","correct_response":"right","trial_type":"html-mouse-response","trial_index":57,"time_elapsed":116162,"internal_node_id":"0.0-1.0-1.0-1.18","subject":1,"condition":"FIXME","correct":true,"exp_id":"outcome-response-priming-task","full_screen":true,"focus_shifts":0,"block":1},{"rt":null,"stimulus":"img/crisp.jpg","key_press":null,"phase":"learn","correct":true,"trial_type":"image-keyboard-response","trial_index":58,"time_elapsed":119164,"internal_node_id":"0.0-1.0-1.0-2.18-0.18","subject":1,"condition":"FIXME","exp_id":"outcome-response-priming-task","full_screen":true,"focus_shifts":0,"block":1},{"rt":null,"prompt":"<div id=\"iti-prompt\">Keep the dot within the square.</div>","direction":"","range":20,"phase":"learn","trial_type":"html-mouse-response","trial_index":59,"time_elapsed":121166,"internal_node_id":"0.0-1.0-1.0-0.19","subject":1,"condition":"FIXME","correct":"","exp_id":"outcome-response-priming-task","full_screen":true,"focus_shifts":0,"block":1},{"rt":null,"prompt":null,"direction":"left","range":300,"phase":"learn","stimulus":"orange","outcome":"chocolate","correct_response":"left","trial_type":"html-mouse-response","trial_index":60,"time_elapsed":122002,"internal_node_id":"0.0-1.0-1.0-1.19","subject":1,"condition":"FIXME","correct":true,"exp_id":"outcome-response-priming-task","full_screen":true,"focus_shifts":0,"block":1},{"rt":null,"stimulus":"img/chocolate.jpg","key_press":null,"phase":"learn","correct":true,"trial_type":"image-keyboard-response","trial_index":61,"time_elapsed":125004,"internal_node_id":"0.0-1.0-1.0-2.19-0.19","subject":1,"condition":"FIXME","exp_id":"outcome-response-priming-task","full_screen":true,"focus_shifts":0,"block":1},{"rt":null,"prompt":"<div id=\"iti-prompt\">Keep the dot within the square.</div>","direction":"","range":20,"phase":"learn","trial_type":"html-mouse-response","trial_index":62,"time_elapsed":125510,"internal_node_id":"0.0-1.0-1.0-0.20","subject":1,"condition":"FIXME","correct":"","exp_id":"outcome-response-priming-task","full_screen":true,"focus_shifts":0,"block":1},{"rt":null,"prompt":null,"direction":"right","range":300,"phase":"learn","stimulus":"blue","outcome":"crisp","correct_response":"right","trial_type":"html-mouse-response","trial_index":63,"time_elapsed":126835,"internal_node_id":"0.0-1.0-1.0-1.20","subject":1,"condition":"FIXME","correct":true,"exp_id":"outcome-response-priming-task","full_screen":true,"focus_shifts":0,"block":1},{"rt":null,"stimulus":"img/crisp.jpg","key_press":null,"phase":"learn","correct":true,"trial_type":"image-keyboard-response","trial_index":64,"time_elapsed":129838,"internal_node_id":"0.0-1.0-1.0-2.20-0.20","subject":1,"condition":"FIXME","exp_id":"outcome-response-priming-task","full_screen":true,"focus_shifts":0,"block":1},{"rt":null,"prompt":"<div id=\"iti-prompt\">Keep the dot within the square.</div>","direction":"","range":20,"phase":"learn","trial_type":"html-mouse-response","trial_index":65,"time_elapsed":131090,"internal_node_id":"0.0-1.0-1.0-0.21","subject":1,"condition":"FIXME","correct":"","exp_id":"outcome-response-priming-task","full_screen":true,"focus_shifts":0,"block":1},{"rt":null,"prompt":null,"direction":"left","range":300,"phase":"learn","stimulus":"orange","outcome":"chocolate","correct_response":"left","trial_type":"html-mouse-response","trial_index":66,"time_elapsed":133025,"internal_node_id":"0.0-1.0-1.0-1.21","subject":1,"condition":"FIXME","correct":true,"exp_id":"outcome-response-priming-task","full_screen":true,"focus_shifts":0,"block":1},{"rt":null,"stimulus":"img/chocolate.jpg","key_press":null,"phase":"learn","correct":true,"trial_type":"image-keyboard-response","trial_index":67,"time_elapsed":136027,"internal_node_id":"0.0-1.0-1.0-2.21-0.21","subject":1,"condition":"FIXME","exp_id":"outcome-response-priming-task","full_screen":true,"focus_shifts":0,"block":1},{"rt":null,"prompt":"<div id=\"iti-prompt\">Keep the dot within the square.</div>","direction":"","range":20,"phase":"learn","trial_type":"html-mouse-response","trial_index":68,"time_elapsed":136279,"internal_node_id":"0.0-1.0-1.0-0.22","subject":1,"condition":"FIXME","correct":"","exp_id":"outcome-response-priming-task","full_screen":true,"focus_shifts":0,"block":1},{"rt":null,"prompt":null,"direction":"right","range":300,"phase":"learn","stimulus":"blue","outcome":"crisp","correct_response":"right","trial_type":"html-mouse-response","trial_index":69,"time_elapsed":137426,"internal_node_id":"0.0-1.0-1.0-1.22","subject":1,"condition":"FIXME","correct":true,"exp_id":"outcome-response-priming-task","full_screen":true,"focus_shifts":0,"block":1},{"rt":null,"stimulus":"img/crisp.jpg","key_press":null,"phase":"learn","correct":true,"trial_type":"image-keyboard-response","trial_index":70,"time_elapsed":140429,"internal_node_id":"0.0-1.0-1.0-2.22-0.22","subject":1,"condition":"FIXME","exp_id":"outcome-response-priming-task","full_screen":true,"focus_shifts":0,"block":1},{"rt":null,"prompt":"<div id=\"iti-prompt\">Keep the dot within the square.</div>","direction":"","range":20,"phase":"learn","trial_type":"html-mouse-response","trial_index":71,"time_elapsed":140932,"internal_node_id":"0.0-1.0-1.0-0.23","subject":1,"condition":"FIXME","correct":"","exp_id":"outcome-response-priming-task","full_screen":true,"focus_shifts":0,"block":1},{"rt":null,"prompt":null,"direction":"right","range":300,"phase":"learn","stimulus":"blue","outcome":"crisp","correct_response":"right","trial_type":"html-mouse-response","trial_index":72,"time_elapsed":141771,"internal_node_id":"0.0-1.0-1.0-1.23","subject":1,"condition":"FIXME","correct":true,"exp_id":"outcome-response-priming-task","full_screen":true,"focus_shifts":0,"block":1},{"rt":null,"stimulus":"img/crisp.jpg","key_press":null,"phase":"learn","correct":true,"trial_type":"image-keyboard-response","trial_index":73,"time_elapsed":144775,"internal_node_id":"0.0-1.0-1.0-2.23-0.23","subject":1,"condition":"FIXME","exp_id":"outcome-response-priming-task","full_screen":true,"focus_shifts":0,"block":1},{"rt":3191,"stimulus":"<p>In this part of the experiment, you will see a picture of either crisp or chocolate for a few seconds. When the picture first disappears, don't move the mouse as you will lose points.<p>When the screen changes colour, if you saw <strong>crisp</strong>, move the dot past the <strong>right</strong> line, or if you saw <strong>chocolate</strong>, move the dot past the <strong>left</strong> line. Respond as quickly and accurately as you can.</p><p>Press any key to begin.</p>","key_press":32,"phase":"test","trial_type":"html-keyboard-response","trial_index":74,"time_elapsed":147969,"internal_node_id":"0.0-1.0-2.0","subject":1,"condition":"FIXME","exp_id":"outcome-response-priming-task","full_screen":true,"focus_shifts":0,"block":1},{"rt":null,"stimulus":"blue","key_press":null,"phase":"test","trial":1,"outcome":"crisp","delay":2,"correct_response":"right","trial_type":"html-keyboard-response","trial_index":75,"time_elapsed":152471,"internal_node_id":"0.0-1.0-3.0-0.0","subject":1,"condition":"FIXME","exp_id":"outcome-response-priming-task","full_screen":true,"focus_shifts":0,"block":1},{"rt":null,"stimulus":"blue","key_press":null,"phase":"test","trial":1,"outcome":"crisp","delay":2,"correct_response":"right","trial_type":"image-keyboard-response","trial_index":76,"time_elapsed":155472,"internal_node_id":"0.0-1.0-3.0-1.0","subject":1,"condition":"FIXME","exp_id":"outcome-response-priming-task","full_screen":true,"focus_shifts":0,"block":1},{"rt":null,"prompt":"<div id=\"distraction-prompt\">Keep the dot within the square.</div>","direction":"","range":20,"phase":"test","trial":1,"outcome":"crisp","delay":2,"stimulus":"blue","correct_response":"right","trial_type":"html-mouse-response","trial_index":77,"time_elapsed":157475,"internal_node_id":"0.0-1.0-3.0-2.0","subject":1,"condition":"FIXME","correct":"","exp_id":"outcome-response-priming-task","full_screen":true,"focus_shifts":0,"block":1},{"rt":null,"prompt":null,"direction":"right","range":300,"phase":"test","trial":1,"outcome":"crisp","delay":2,"stimulus":"blue","correct_response":"right","trial_type":"html-mouse-response","trial_index":78,"time_elapsed":158379,"internal_node_id":"0.0-1.0-3.0-3.0","subject":1,"condition":"FIXME","correct":true,"exp_id":"outcome-response-priming-task","full_screen":true,"focus_shifts":0,"block":1},{"rt":null,"stimulus":"orange","key_press":null,"phase":"test","trial":9,"outcome":"chocolate","delay":4,"correct_response":"left","trial_type":"html-keyboard-response","trial_index":79,"time_elapsed":160881,"internal_node_id":"0.0-1.0-3.0-0.1","subject":1,"condition":"FIXME","exp_id":"outcome-response-priming-task","full_screen":true,"focus_shifts":0,"block":1},{"rt":null,"stimulus":"orange","key_press":null,"phase":"test","trial":9,"outcome":"chocolate","delay":4,"correct_response":"left","trial_type":"image-keyboard-response","trial_index":80,"time_elapsed":163886,"internal_node_id":"0.0-1.0-3.0-1.1","subject":1,"condition":"FIXME","exp_id":"outcome-response-priming-task","full_screen":true,"focus_shifts":0,"block":1},{"rt":null,"prompt":"<div id=\"distraction-prompt\">Keep the dot within the square.</div>","direction":"","range":20,"phase":"test","trial":9,"outcome":"chocolate","delay":4,"stimulus":"orange","correct_response":"left","trial_type":"html-mouse-response","trial_index":81,"time_elapsed":167890,"internal_node_id":"0.0-1.0-3.0-2.1","subject":1,"condition":"FIXME","correct":"","exp_id":"outcome-response-priming-task","full_screen":true,"focus_shifts":0,"block":1},{"rt":null,"prompt":null,"direction":"left","range":300,"phase":"test","trial":9,"outcome":"chocolate","delay":4,"stimulus":"orange","correct_response":"left","trial_type":"html-mouse-response","trial_index":82,"time_elapsed":168701,"internal_node_id":"0.0-1.0-3.0-3.1","subject":1,"condition":"FIXME","correct":true,"exp_id":"outcome-response-priming-task","full_screen":true,"focus_shifts":0,"block":1},{"rt":null,"stimulus":"blue","key_press":null,"phase":"test","trial":6,"outcome":"crisp","delay":10,"correct_response":"right","trial_type":"html-keyboard-response","trial_index":83,"time_elapsed":171203,"internal_node_id":"0.0-1.0-3.0-0.2","subject":1,"condition":"FIXME","exp_id":"outcome-response-priming-task","full_screen":true,"focus_shifts":0,"block":1},{"rt":null,"stimulus":"blue","key_press":null,"phase":"test","trial":6,"outcome":"crisp","delay":10,"correct_response":"right","trial_type":"image-keyboard-response","trial_index":84,"time_elapsed":174204,"internal_node_id":"0.0-1.0-3.0-1.2","subject":1,"condition":"FIXME","exp_id":"outcome-response-priming-task","full_screen":true,"focus_shifts":0,"block":1},{"rt":null,"prompt":"<div id=\"distraction-prompt\">Keep the dot within the square.</div>","direction":"","range":20,"phase":"test","trial":6,"outcome":"crisp","delay":10,"stimulus":"blue","correct_response":"right","trial_type":"html-mouse-response","trial_index":85,"time_elapsed":184207,"internal_node_id":"0.0-1.0-3.0-2.2","subject":1,"condition":"FIXME","correct":"","exp_id":"outcome-response-priming-task","full_screen":true,"focus_shifts":0,"block":1},{"rt":null,"prompt":null,"direction":"right","range":300,"phase":"test","trial":6,"outcome":"crisp","delay":10,"stimulus":"blue","correct_response":"right","trial_type":"html-mouse-response","trial_index":86,"time_elapsed":184880,"internal_node_id":"0.0-1.0-3.0-3.2","subject":1,"condition":"FIXME","correct":true,"exp_id":"outcome-response-priming-task","full_screen":true,"focus_shifts":0,"block":1},{"rt":null,"stimulus":"blue","key_press":null,"phase":"test","trial":7,"outcome":"chocolate","delay":10,"correct_response":"left","trial_type":"html-keyboard-response","trial_index":87,"time_elapsed":187383,"internal_node_id":"0.0-1.0-3.0-0.3","subject":1,"condition":"FIXME","exp_id":"outcome-response-priming-task","full_screen":true,"focus_shifts":0,"block":1},{"rt":null,"stimulus":"blue","key_press":null,"phase":"test","trial":7,"outcome":"chocolate","delay":10,"correct_response":"left","trial_type":"image-keyboard-response","trial_index":88,"time_elapsed":190384,"internal_node_id":"0.0-1.0-3.0-1.3","subject":1,"condition":"FIXME","exp_id":"outcome-response-priming-task","full_screen":true,"focus_shifts":0,"block":1},{"rt":null,"prompt":"<div id=\"distraction-prompt\">Keep the dot within the square.</div>","direction":"","range":20,"phase":"test","trial":7,"outcome":"chocolate","delay":10,"stimulus":"blue","correct_response":"left","trial_type":"html-mouse-response","trial_index":89,"time_elapsed":200387,"internal_node_id":"0.0-1.0-3.0-2.3","subject":1,"condition":"FIXME","correct":"","exp_id":"outcome-response-priming-task","full_screen":true,"focus_shifts":0,"block":1},{"rt":null,"prompt":null,"direction":"left","range":300,"phase":"test","trial":7,"outcome":"chocolate","delay":10,"stimulus":"blue","correct_response":"left","trial_type":"html-mouse-response","trial_index":90,"time_elapsed":200924,"internal_node_id":"0.0-1.0-3.0-3.3","subject":1,"condition":"FIXME","correct":true,"exp_id":"outcome-response-priming-task","full_screen":true,"focus_shifts":0,"block":1},{"rt":null,"stimulus":"orange","key_press":null,"phase":"test","trial":3,"outcome":"chocolate","delay":2,"correct_response":"left","trial_type":"html-keyboard-response","trial_index":91,"time_elapsed":203426,"internal_node_id":"0.0-1.0-3.0-0.4","subject":1,"condition":"FIXME","exp_id":"outcome-response-priming-task","full_screen":true,"focus_shifts":0,"block":1},{"rt":null,"stimulus":"orange","key_press":null,"phase":"test","trial":3,"outcome":"chocolate","delay":2,"correct_response":"left","trial_type":"image-keyboard-response","trial_index":92,"time_elapsed":206428,"internal_node_id":"0.0-1.0-3.0-1.4","subject":1,"condition":"FIXME","exp_id":"outcome-response-priming-task","full_screen":true,"focus_shifts":0,"block":1},{"rt":null,"prompt":"<div id=\"distraction-prompt\">Keep the dot within the square.</div>","direction":"","range":20,"phase":"test","trial":3,"outcome":"chocolate","delay":2,"stimulus":"orange","correct_response":"left","trial_type":"html-mouse-response","trial_index":93,"time_elapsed":208431,"internal_node_id":"0.0-1.0-3.0-2.4","subject":1,"condition":"FIXME","correct":"","exp_id":"outcome-response-priming-task","full_screen":true,"focus_shifts":0,"block":1},{"rt":null,"prompt":null,"direction":"left","range":300,"phase":"test","trial":3,"outcome":"chocolate","delay":2,"stimulus":"orange","correct_response":"left","trial_type":"html-mouse-response","trial_index":94,"time_elapsed":209034,"internal_node_id":"0.0-1.0-3.0-3.4","subject":1,"condition":"FIXME","correct":true,"exp_id":"outcome-response-priming-task","full_screen":true,"focus_shifts":0,"block":1},{"rt":null,"stimulus":"orange","key_press":null,"phase":"test","trial":8,"outcome":"crisp","delay":10,"correct_response":"right","trial_type":"html-keyboard-response","trial_index":95,"time_elapsed":211536,"internal_node_id":"0.0-1.0-3.0-0.5","subject":1,"condition":"FIXME","exp_id":"outcome-response-priming-task","full_screen":true,"focus_shifts":0,"block":1},{"rt":null,"stimulus":"orange","key_press":null,"phase":"test","trial":8,"outcome":"crisp","delay":10,"correct_response":"right","trial_type":"image-keyboard-response","trial_index":96,"time_elapsed":214539,"internal_node_id":"0.0-1.0-3.0-1.5","subject":1,"condition":"FIXME","exp_id":"outcome-response-priming-task","full_screen":true,"focus_shifts":0,"block":1},{"rt":null,"prompt":"<div id=\"distraction-prompt\">Keep the dot within the square.</div>","direction":"right","range":20,"phase":"test","trial":8,"outcome":"crisp","delay":10,"stimulus":"orange","correct_response":"right","trial_type":"html-mouse-response","trial_index":97,"time_elapsed":215405,"internal_node_id":"0.0-1.0-3.0-2.5","subject":1,"condition":"FIXME","correct":"right","exp_id":"outcome-response-priming-task","full_screen":true,"focus_shifts":0,"block":1},{"rt":null,"prompt":null,"direction":"right","range":300,"phase":"test","trial":8,"outcome":"crisp","delay":10,"stimulus":"orange","correct_response":"right","trial_type":"html-mouse-response","trial_index":98,"time_elapsed":215455,"internal_node_id":"0.0-1.0-3.0-3.5","subject":1,"condition":"FIXME","correct":true,"exp_id":"outcome-response-priming-task","full_screen":true,"focus_shifts":0,"block":1},{"rt":null,"stimulus":"blue","key_press":null,"phase":"test","trial":12,"outcome":"chocolate","delay":2,"correct_response":"left","trial_type":"html-keyboard-response","trial_index":99,"time_elapsed":217957,"internal_node_id":"0.0-1.0-3.0-0.6","subject":1,"condition":"FIXME","exp_id":"outcome-response-priming-task","full_screen":true,"focus_shifts":0,"block":1},{"rt":null,"stimulus":"blue","key_press":null,"phase":"test","trial":12,"outcome":"chocolate","delay":2,"correct_response":"left","trial_type":"image-keyboard-response","trial_index":100,"time_elapsed":220960,"internal_node_id":"0.0-1.0-3.0-1.6","subject":1,"condition":"FIXME","exp_id":"outcome-response-priming-task","full_screen":true,"focus_shifts":0,"block":1},{"rt":null,"prompt":"<div id=\"distraction-prompt\">Keep the dot within the square.</div>","direction":"left","range":20,"phase":"test","trial":12,"outcome":"chocolate","delay":2,"stimulus":"blue","correct_response":"left","trial_type":"html-mouse-response","trial_index":101,"time_elapsed":221286,"internal_node_id":"0.0-1.0-3.0-2.6","subject":1,"condition":"FIXME","correct":"left","exp_id":"outcome-response-priming-task","full_screen":true,"focus_shifts":0,"block":1},{"rt":null,"prompt":null,"direction":"left","range":300,"phase":"test","trial":12,"outcome":"chocolate","delay":2,"stimulus":"blue","correct_response":"left","trial_type":"html-mouse-response","trial_index":102,"time_elapsed":221336,"internal_node_id":"0.0-1.0-3.0-3.6","subject":1,"condition":"FIXME","correct":true,"exp_id":"outcome-response-priming-task","full_screen":true,"focus_shifts":0,"block":1},{"rt":null,"stimulus":"orange","key_press":null,"phase":"test","trial":5,"outcome":"crisp","delay":4,"correct_response":"right","trial_type":"html-keyboard-response","trial_index":103,"time_elapsed":223841,"internal_node_id":"0.0-1.0-3.0-0.7","subject":1,"condition":"FIXME","exp_id":"outcome-response-priming-task","full_screen":true,"focus_shifts":0,"block":1},{"rt":null,"stimulus":"orange","key_press":null,"phase":"test","trial":5,"outcome":"crisp","delay":4,"correct_response":"right","trial_type":"image-keyboard-response","trial_index":104,"time_elapsed":226843,"internal_node_id":"0.0-1.0-3.0-1.7","subject":1,"condition":"FIXME","exp_id":"outcome-response-priming-task","full_screen":true,"focus_shifts":0,"block":1},{"rt":null,"prompt":"<div id=\"distraction-prompt\">Keep the dot within the square.</div>","direction":"right","range":20,"phase":"test","trial":5,"outcome":"crisp","delay":4,"stimulus":"orange","correct_response":"right","trial_type":"html-mouse-response","trial_index":105,"time_elapsed":227264,"internal_node_id":"0.0-1.0-3.0-2.7","subject":1,"condition":"FIXME","correct":"right","exp_id":"outcome-response-priming-task","full_screen":true,"focus_shifts":0,"block":1},{"rt":null,"prompt":null,"direction":"right","range":300,"phase":"test","trial":5,"outcome":"crisp","delay":4,"stimulus":"orange","correct_response":"right","trial_type":"html-mouse-response","trial_index":106,"time_elapsed":227315,"internal_node_id":"0.0-1.0-3.0-3.7","subject":1,"condition":"FIXME","correct":true,"exp_id":"outcome-response-priming-task","full_screen":true,"focus_shifts":0,"block":1},{"rt":null,"stimulus":"blue","key_press":null,"phase":"test","trial":4,"outcome":"crisp","delay":4,"correct_response":"right","trial_type":"html-keyboard-response","trial_index":107,"time_elapsed":229817,"internal_node_id":"0.0-1.0-3.0-0.8","subject":1,"condition":"FIXME","exp_id":"outcome-response-priming-task","full_screen":true,"focus_shifts":0,"block":1},{"rt":null,"stimulus":"blue","key_press":null,"phase":"test","trial":4,"outcome":"crisp","delay":4,"correct_response":"right","trial_type":"image-keyboard-response","trial_index":108,"time_elapsed":232820,"internal_node_id":"0.0-1.0-3.0-1.8","subject":1,"condition":"FIXME","exp_id":"outcome-response-priming-task","full_screen":true,"focus_shifts":0,"block":1},{"rt":null,"prompt":"<div id=\"distraction-prompt\">Keep the dot within the square.</div>","direction":"right","range":20,"phase":"test","trial":4,"outcome":"crisp","delay":4,"stimulus":"blue","correct_response":"right","trial_type":"html-mouse-response","trial_index":109,"time_elapsed":233181,"internal_node_id":"0.0-1.0-3.0-2.8","subject":1,"condition":"FIXME","correct":"right","exp_id":"outcome-response-priming-task","full_screen":true,"focus_shifts":0,"block":1},{"rt":null,"prompt":null,"direction":"right","range":300,"phase":"test","trial":4,"outcome":"crisp","delay":4,"stimulus":"blue","correct_response":"right","trial_type":"html-mouse-response","trial_index":110,"time_elapsed":233233,"internal_node_id":"0.0-1.0-3.0-3.8","subject":1,"condition":"FIXME","correct":true,"exp_id":"outcome-response-priming-task","full_screen":true,"focus_shifts":0,"block":1},{"rt":null,"stimulus":"orange","key_press":null,"phase":"test","trial":2,"outcome":"crisp","delay":2,"correct_response":"right","trial_type":"html-keyboard-response","trial_index":111,"time_elapsed":235735,"internal_node_id":"0.0-1.0-3.0-0.9","subject":1,"condition":"FIXME","exp_id":"outcome-response-priming-task","full_screen":true,"focus_shifts":0,"block":1},{"rt":null,"stimulus":"orange","key_press":null,"phase":"test","trial":2,"outcome":"crisp","delay":2,"correct_response":"right","trial_type":"image-keyboard-response","trial_index":112,"time_elapsed":238737,"internal_node_id":"0.0-1.0-3.0-1.9","subject":1,"condition":"FIXME","exp_id":"outcome-response-priming-task","full_screen":true,"focus_shifts":0,"block":1},{"rt":null,"prompt":"<div id=\"distraction-prompt\">Keep the dot within the square.</div>","direction":"right","range":20,"phase":"test","trial":2,"outcome":"crisp","delay":2,"stimulus":"orange","correct_response":"right","trial_type":"html-mouse-response","trial_index":113,"time_elapsed":240263,"internal_node_id":"0.0-1.0-3.0-2.9","subject":1,"condition":"FIXME","correct":"right","exp_id":"outcome-response-priming-task","full_screen":true,"focus_shifts":0,"block":1},{"rt":null,"prompt":null,"direction":"right","range":300,"phase":"test","trial":2,"outcome":"crisp","delay":2,"stimulus":"orange","correct_response":"right","trial_type":"html-mouse-response","trial_index":114,"time_elapsed":241566,"internal_node_id":"0.0-1.0-3.0-3.9","subject":1,"condition":"FIXME","correct":true,"exp_id":"outcome-response-priming-task","full_screen":true,"focus_shifts":0,"block":1},{"rt":null,"stimulus":"orange","key_press":null,"phase":"test","trial":11,"outcome":"chocolate","delay":10,"correct_response":"left","trial_type":"html-keyboard-response","trial_index":115,"time_elapsed":244068,"internal_node_id":"0.0-1.0-3.0-0.10","subject":1,"condition":"FIXME","exp_id":"outcome-response-priming-task","full_screen":true,"focus_shifts":0,"block":1},{"rt":null,"stimulus":"orange","key_press":null,"phase":"test","trial":11,"outcome":"chocolate","delay":10,"correct_response":"left","trial_type":"image-keyboard-response","trial_index":116,"time_elapsed":247070,"internal_node_id":"0.0-1.0-3.0-1.10","subject":1,"condition":"FIXME","exp_id":"outcome-response-priming-task","full_screen":true,"focus_shifts":0,"block":1},{"rt":null,"prompt":"<div id=\"distraction-prompt\">Keep the dot within the square.</div>","direction":"left","range":20,"phase":"test","trial":11,"outcome":"chocolate","delay":10,"stimulus":"orange","correct_response":"left","trial_type":"html-mouse-response","trial_index":117,"time_elapsed":252662,"internal_node_id":"0.0-1.0-3.0-2.10","subject":1,"condition":"FIXME","correct":"left","exp_id":"outcome-response-priming-task","full_screen":true,"focus_shifts":0,"block":1},{"rt":null,"prompt":null,"direction":"left","range":300,"phase":"test","trial":11,"outcome":"chocolate","delay":10,"stimulus":"orange","correct_response":"left","trial_type":"html-mouse-response","trial_index":118,"time_elapsed":252729,"internal_node_id":"0.0-1.0-3.0-3.10","subject":1,"condition":"FIXME","correct":true,"exp_id":"outcome-response-priming-task","full_screen":true,"focus_shifts":0,"block":1},{"rt":null,"stimulus":"blue","key_press":null,"phase":"test","trial":10,"outcome":"chocolate","delay":4,"correct_response":"left","trial_type":"html-keyboard-response","trial_index":119,"time_elapsed":255233,"internal_node_id":"0.0-1.0-3.0-0.11","subject":1,"condition":"FIXME","exp_id":"outcome-response-priming-task","full_screen":true,"focus_shifts":0,"block":1},{"rt":null,"stimulus":"blue","key_press":null,"phase":"test","trial":10,"outcome":"chocolate","delay":4,"correct_response":"left","trial_type":"image-keyboard-response","trial_index":120,"time_elapsed":258235,"internal_node_id":"0.0-1.0-3.0-1.11","subject":1,"condition":"FIXME","exp_id":"outcome-response-priming-task","full_screen":true,"focus_shifts":0,"block":1},{"rt":null,"prompt":"<div id=\"distraction-prompt\">Keep the dot within the square.</div>","direction":"left","range":20,"phase":"test","trial":10,"outcome":"chocolate","delay":4,"stimulus":"blue","correct_response":"left","trial_type":"html-mouse-response","trial_index":121,"time_elapsed":261190,"internal_node_id":"0.0-1.0-3.0-2.11","subject":1,"condition":"FIXME","correct":"left","exp_id":"outcome-response-priming-task","full_screen":true,"focus_shifts":0,"block":1},{"rt":null,"prompt":null,"direction":"left","range":300,"phase":"test","trial":10,"outcome":"chocolate","delay":4,"stimulus":"blue","correct_response":"left","trial_type":"html-mouse-response","trial_index":122,"time_elapsed":261257,"internal_node_id":"0.0-1.0-3.0-3.11","subject":1,"condition":"FIXME","correct":true,"exp_id":"outcome-response-priming-task","full_screen":true,"focus_shifts":0,"block":1},{"trial_type":"call-function","trial_index":123,"time_elapsed":261263,"internal_node_id":"0.0-1.0-4.0","subject":1,"condition":"FIXME","exp_id":"outcome-response-priming-task","full_screen":true,"focus_shifts":0},{"rt":5156,"stimulus":"<p>In this part of the experiment, you will see a dot on a coloured screen.</p><p>Move the dot past the line on the left or right as fast as you can to win rewards.</p><p>Press any key to begin.</p>","key_press":32,"phase":"learn","trial_type":"html-keyboard-response","trial_index":124,"time_elapsed":266421,"internal_node_id":"0.0-2.0-0.0","subject":1,"condition":"FIXME","exp_id":"outcome-response-priming-task","full_screen":true,"focus_shifts":0,"block":2},{"rt":null,"prompt":"<div id=\"iti-prompt\">Keep the dot within the square.</div>","direction":"","range":20,"phase":"learn","trial_type":"html-mouse-response","trial_index":125,"time_elapsed":269676,"internal_node_id":"0.0-2.0-1.0-0.0","subject":1,"condition":"FIXME","correct":"","exp_id":"outcome-response-priming-task","full_screen":true,"focus_shifts":0,"block":2},{"rt":null,"prompt":null,"direction":"left","range":300,"phase":"learn","stimulus":"orange","outcome":"chocolate","correct_response":"left","trial_type":"html-mouse-response","trial_index":126,"time_elapsed":272177,"internal_node_id":"0.0-2.0-1.0-1.0","subject":1,"condition":"FIXME","correct":true,"exp_id":"outcome-response-priming-task","full_screen":true,"focus_shifts":0,"block":2},{"rt":null,"stimulus":"img/chocolate.jpg","key_press":null,"phase":"learn","correct":true,"trial_type":"image-keyboard-response","trial_index":127,"time_elapsed":275182,"internal_node_id":"0.0-2.0-1.0-2.0-0.0","subject":1,"condition":"FIXME","exp_id":"outcome-response-priming-task","full_screen":true,"focus_shifts":0,"block":2},{"rt":null,"prompt":"<div id=\"iti-prompt\">Keep the dot within the square.</div>","direction":"","range":20,"phase":"learn","trial_type":"html-mouse-response","trial_index":128,"time_elapsed":276935,"internal_node_id":"0.0-2.0-1.0-0.1","subject":1,"condition":"FIXME","correct":"","exp_id":"outcome-response-priming-task","full_screen":true,"focus_shifts":0,"block":2},{"rt":null,"prompt":null,"direction":"right","range":300,"phase":"learn","stimulus":"blue","outcome":"crisp","correct_response":"right","trial_type":"html-mouse-response","trial_index":129,"time_elapsed":278033,"internal_node_id":"0.0-2.0-1.0-1.1","subject":1,"condition":"FIXME","correct":true,"exp_id":"outcome-response-priming-task","full_screen":true,"focus_shifts":0,"block":2},{"rt":null,"stimulus":"img/crisp.jpg","key_press":null,"phase":"learn","correct":true,"trial_type":"image-keyboard-response","trial_index":130,"time_elapsed":281035,"internal_node_id":"0.0-2.0-1.0-2.1-0.1","subject":1,"condition":"FIXME","exp_id":"outcome-response-priming-task","full_screen":true,"focus_shifts":0,"block":2},{"rt":null,"prompt":"<div id=\"iti-prompt\">Keep the dot within the square.</div>","direction":"","range":20,"phase":"learn","trial_type":"html-mouse-response","trial_index":131,"time_elapsed":283038,"internal_node_id":"0.0-2.0-1.0-0.2","subject":1,"condition":"FIXME","correct":"","exp_id":"outcome-response-priming-task","full_screen":true,"focus_shifts":0,"block":2},{"rt":null,"prompt":null,"direction":"left","range":300,"phase":"learn","stimulus":"orange","outcome":"chocolate","correct_response":"left","trial_type":"html-mouse-response","trial_index":132,"time_elapsed":284113,"internal_node_id":"0.0-2.0-1.0-1.2","subject":1,"condition":"FIXME","correct":true,"exp_id":"outcome-response-priming-task","full_screen":true,"focus_shifts":0,"block":2},{"rt":null,"stimulus":"img/chocolate.jpg","key_press":null,"phase":"learn","correct":true,"trial_type":"image-keyboard-response","trial_index":133,"time_elapsed":287115,"internal_node_id":"0.0-2.0-1.0-2.2-0.2","subject":1,"condition":"FIXME","exp_id":"outcome-response-priming-task","full_screen":true,"focus_shifts":0,"block":2},{"rt":null,"prompt":"<div id=\"iti-prompt\">Keep the dot within the square.</div>","direction":"","range":20,"phase":"learn","trial_type":"html-mouse-response","trial_index":134,"time_elapsed":288621,"internal_node_id":"0.0-2.0-1.0-0.3","subject":1,"condition":"FIXME","correct":"","exp_id":"outcome-response-priming-task","full_screen":true,"focus_shifts":0,"block":2},{"rt":null,"prompt":null,"direction":"left","range":300,"phase":"learn","stimulus":"orange","outcome":"chocolate","correct_response":"left","trial_type":"html-mouse-response","trial_index":135,"time_elapsed":290689,"internal_node_id":"0.0-2.0-1.0-1.3","subject":1,"condition":"FIXME","correct":true,"exp_id":"outcome-response-priming-task","full_screen":true,"focus_shifts":0,"block":2},{"rt":null,"stimulus":"img/chocolate.jpg","key_press":null,"phase":"learn","correct":true,"trial_type":"image-keyboard-response","trial_index":136,"time_elapsed":293691,"internal_node_id":"0.0-2.0-1.0-2.3-0.3","subject":1,"condition":"FIXME","exp_id":"outcome-response-priming-task","full_screen":true,"focus_shifts":0,"block":2},{"rt":null,"prompt":"<div id=\"iti-prompt\">Keep the dot within the square.</div>","direction":"","range":20,"phase":"learn","trial_type":"html-mouse-response","trial_index":137,"time_elapsed":294695,"internal_node_id":"0.0-2.0-1.0-0.4","subject":1,"condition":"FIXME","correct":"","exp_id":"outcome-response-priming-task","full_screen":true,"focus_shifts":0,"block":2},{"rt":null,"prompt":null,"direction":"right","range":300,"phase":"learn","stimulus":"blue","outcome":"crisp","correct_response":"right","trial_type":"html-mouse-response","trial_index":138,"time_elapsed":295634,"internal_node_id":"0.0-2.0-1.0-1.4","subject":1,"condition":"FIXME","correct":true,"exp_id":"outcome-response-priming-task","full_screen":true,"focus_shifts":0,"block":2},{"rt":null,"stimulus":"img/crisp.jpg","key_press":null,"phase":"learn","correct":true,"trial_type":"image-keyboard-response","trial_index":139,"time_elapsed":298637,"internal_node_id":"0.0-2.0-1.0-2.4-0.4","subject":1,"condition":"FIXME","exp_id":"outcome-response-priming-task","full_screen":true,"focus_shifts":0,"block":2},{"rt":null,"prompt":"<div id=\"iti-prompt\">Keep the dot within the square.</div>","direction":"","range":20,"phase":"learn","trial_type":"html-mouse-response","trial_index":140,"time_elapsed":299892,"internal_node_id":"0.0-2.0-1.0-0.5","subject":1,"condition":"FIXME","correct":"","exp_id":"outcome-response-priming-task","full_screen":true,"focus_shifts":0,"block":2},{"rt":null,"prompt":null,"direction":"left","range":300,"phase":"learn","stimulus":"orange","outcome":"chocolate","correct_response":"left","trial_type":"html-mouse-response","trial_index":141,"time_elapsed":301506,"internal_node_id":"0.0-2.0-1.0-1.5","subject":1,"condition":"FIXME","correct":true,"exp_id":"outcome-response-priming-task","full_screen":true,"focus_shifts":0,"block":2},{"rt":null,"stimulus":"img/chocolate.jpg","key_press":null,"phase":"learn","correct":true,"trial_type":"image-keyboard-response","trial_index":142,"time_elapsed":304509,"internal_node_id":"0.0-2.0-1.0-2.5-0.5","subject":1,"condition":"FIXME","exp_id":"outcome-response-priming-task","full_screen":true,"focus_shifts":0,"block":2},{"rt":null,"prompt":"<div id=\"iti-prompt\">Keep the dot within the square.</div>","direction":"","range":20,"phase":"learn","trial_type":"html-mouse-response","trial_index":143,"time_elapsed":304761,"internal_node_id":"0.0-2.0-1.0-0.6","subject":1,"condition":"FIXME","correct":"","exp_id":"outcome-response-priming-task","full_screen":true,"focus_shifts":0,"block":2},{"rt":null,"prompt":null,"direction":"right","range":300,"phase":"learn","stimulus":"blue","outcome":"crisp","correct_response":"right","trial_type":"html-mouse-response","trial_index":144,"time_elapsed":305497,"internal_node_id":"0.0-2.0-1.0-1.6","subject":1,"condition":"FIXME","correct":true,"exp_id":"outcome-response-priming-task","full_screen":true,"focus_shifts":0,"block":2},{"rt":null,"stimulus":"img/crisp.jpg","key_press":null,"phase":"learn","correct":true,"trial_type":"image-keyboard-response","trial_index":145,"time_elapsed":308498,"internal_node_id":"0.0-2.0-1.0-2.6-0.6","subject":1,"condition":"FIXME","exp_id":"outcome-response-priming-task","full_screen":true,"focus_shifts":0,"block":2},{"rt":null,"prompt":"<div id=\"iti-prompt\">Keep the dot within the square.</div>","direction":"","range":20,"phase":"learn","trial_type":"html-mouse-response","trial_index":146,"time_elapsed":309002,"internal_node_id":"0.0-2.0-1.0-0.7","subject":1,"condition":"FIXME","correct":"","exp_id":"outcome-response-priming-task","full_screen":true,"focus_shifts":0,"block":2},{"rt":null,"prompt":null,"direction":"right","range":300,"phase":"learn","stimulus":"blue","outcome":"crisp","correct_response":"right","trial_type":"html-mouse-response","trial_index":147,"time_elapsed":310971,"internal_node_id":"0.0-2.0-1.0-1.7","subject":1,"condition":"FIXME","correct":true,"exp_id":"outcome-response-priming-task","full_screen":true,"focus_shifts":0,"block":2},{"rt":null,"stimulus":"img/crisp.jpg","key_press":null,"phase":"learn","correct":true,"trial_type":"image-keyboard-response","trial_index":148,"time_elapsed":313974,"internal_node_id":"0.0-2.0-1.0-2.7-0.7","subject":1,"condition":"FIXME","exp_id":"outcome-response-priming-task","full_screen":true,"focus_shifts":0,"block":2},{"rt":null,"prompt":"<div id=\"iti-prompt\">Keep the dot within the square.</div>","direction":"","range":20,"phase":"learn","trial_type":"html-mouse-response","trial_index":149,"time_elapsed":314727,"internal_node_id":"0.0-2.0-1.0-0.8","subject":1,"condition":"FIXME","correct":"","exp_id":"outcome-response-priming-task","full_screen":true,"focus_shifts":0,"block":2},{"rt":null,"prompt":null,"direction":"right","range":300,"phase":"learn","stimulus":"blue","outcome":"crisp","correct_response":"right","trial_type":"html-mouse-response","trial_index":150,"time_elapsed":315315,"internal_node_id":"0.0-2.0-1.0-1.8","subject":1,"condition":"FIXME","correct":true,"exp_id":"outcome-response-priming-task","full_screen":true,"focus_shifts":0,"block":2},{"rt":null,"stimulus":"img/crisp.jpg","key_press":null,"phase":"learn","correct":true,"trial_type":"image-keyboard-response","trial_index":151,"time_elapsed":318318,"internal_node_id":"0.0-2.0-1.0-2.8-0.8","subject":1,"condition":"FIXME","exp_id":"outcome-response-priming-task","full_screen":true,"focus_shifts":0,"block":2},{"rt":null,"prompt":"<div id=\"iti-prompt\">Keep the dot within the square.</div>","direction":"","range":20,"phase":"learn","trial_type":"html-mouse-response","trial_index":152,"time_elapsed":318571,"internal_node_id":"0.0-2.0-1.0-0.9","subject":1,"condition":"FIXME","correct":"","exp_id":"outcome-response-priming-task","full_screen":true,"focus_shifts":0,"block":2},{"rt":null,"prompt":null,"direction":"left","range":300,"phase":"learn","stimulus":"orange","outcome":"chocolate","correct_response":"left","trial_type":"html-mouse-response","trial_index":153,"time_elapsed":319763,"internal_node_id":"0.0-2.0-1.0-1.9","subject":1,"condition":"FIXME","correct":true,"exp_id":"outcome-response-priming-task","full_screen":true,"focus_shifts":0,"block":2},{"rt":null,"stimulus":"img/chocolate.jpg","key_press":null,"phase":"learn","correct":true,"trial_type":"image-keyboard-response","trial_index":154,"time_elapsed":322765,"internal_node_id":"0.0-2.0-1.0-2.9-0.9","subject":1,"condition":"FIXME","exp_id":"outcome-response-priming-task","full_screen":true,"focus_shifts":0,"block":2},{"rt":null,"prompt":"<div id=\"iti-prompt\">Keep the dot within the square.</div>","direction":"right","range":20,"phase":"learn","trial_type":"html-mouse-response","trial_index":155,"time_elapsed":323253,"internal_node_id":"0.0-2.0-1.0-0.10","subject":1,"condition":"FIXME","correct":"right","exp_id":"outcome-response-priming-task","full_screen":true,"focus_shifts":0,"block":2},{"rt":null,"prompt":null,"direction":"right","range":300,"phase":"learn","stimulus":"blue","outcome":"crisp","correct_response":"right","trial_type":"html-mouse-response","trial_index":156,"time_elapsed":325213,"internal_node_id":"0.0-2.0-1.0-1.10","subject":1,"condition":"FIXME","correct":true,"exp_id":"outcome-response-priming-task","full_screen":true,"focus_shifts":0,"block":2},{"rt":null,"stimulus":"img/crisp.jpg","key_press":null,"phase":"learn","correct":true,"trial_type":"image-keyboard-response","trial_index":157,"time_elapsed":328215,"internal_node_id":"0.0-2.0-1.0-2.10-0.10","subject":1,"condition":"FIXME","exp_id":"outcome-response-priming-task","full_screen":true,"focus_shifts":0,"block":2},{"rt":null,"prompt":"<div id=\"iti-prompt\">Keep the dot within the square.</div>","direction":"right","range":20,"phase":"learn","trial_type":"html-mouse-response","trial_index":158,"time_elapsed":328801,"internal_node_id":"0.0-2.0-1.0-0.11","subject":1,"condition":"FIXME","correct":"right","exp_id":"outcome-response-priming-task","full_screen":true,"focus_shifts":0,"block":2},{"rt":null,"prompt":null,"direction":"right","range":300,"phase":"learn","stimulus":"blue","outcome":"crisp","correct_response":"right","trial_type":"html-mouse-response","trial_index":159,"time_elapsed":329486,"internal_node_id":"0.0-2.0-1.0-1.11","subject":1,"condition":"FIXME","correct":true,"exp_id":"outcome-response-priming-task","full_screen":true,"focus_shifts":0,"block":2},{"rt":null,"stimulus":"img/crisp.jpg","key_press":null,"phase":"learn","correct":true,"trial_type":"image-keyboard-response","trial_index":160,"time_elapsed":332489,"internal_node_id":"0.0-2.0-1.0-2.11-0.11","subject":1,"condition":"FIXME","exp_id":"outcome-response-priming-task","full_screen":true,"focus_shifts":0,"block":2},{"rt":null,"prompt":"<div id=\"iti-prompt\">Keep the dot within the square.</div>","direction":"right","range":20,"phase":"learn","trial_type":"html-mouse-response","trial_index":161,"time_elapsed":332843,"internal_node_id":"0.0-2.0-1.0-0.12","subject":1,"condition":"FIXME","correct":"right","exp_id":"outcome-response-priming-task","full_screen":true,"focus_shifts":0,"block":2},{"rt":null,"prompt":null,"direction":"right","range":300,"phase":"learn","stimulus":"blue","outcome":"crisp","correct_response":"right","trial_type":"html-mouse-response","trial_index":162,"time_elapsed":333509,"internal_node_id":"0.0-2.0-1.0-1.12","subject":1,"condition":"FIXME","correct":true,"exp_id":"outcome-response-priming-task","full_screen":true,"focus_shifts":0,"block":2},{"rt":null,"stimulus":"img/crisp.jpg","key_press":null,"phase":"learn","correct":true,"trial_type":"image-keyboard-response","trial_index":163,"time_elapsed":336512,"internal_node_id":"0.0-2.0-1.0-2.12-0.12","subject":1,"condition":"FIXME","exp_id":"outcome-response-priming-task","full_screen":true,"focus_shifts":0,"block":2},{"rt":null,"prompt":"<div id=\"iti-prompt\">Keep the dot within the square.</div>","direction":"left","range":20,"phase":"learn","trial_type":"html-mouse-response","trial_index":164,"time_elapsed":337081,"internal_node_id":"0.0-2.0-1.0-0.13","subject":1,"condition":"FIXME","correct":"left","exp_id":"outcome-response-priming-task","full_screen":true,"focus_shifts":0,"block":2},{"rt":null,"prompt":null,"direction":"right","range":300,"phase":"learn","stimulus":"blue","outcome":"crisp","correct_response":"right","trial_type":"html-mouse-response","trial_index":165,"time_elapsed":337700,"internal_node_id":"0.0-2.0-1.0-1.13","subject":1,"condition":"FIXME","correct":true,"exp_id":"outcome-response-priming-task","full_screen":true,"focus_shifts":0,"block":2},{"rt":null,"stimulus":"img/crisp.jpg","key_press":null,"phase":"learn","correct":true,"trial_type":"image-keyboard-response","trial_index":166,"time_elapsed":340703,"internal_node_id":"0.0-2.0-1.0-2.13-0.13","subject":1,"condition":"FIXME","exp_id":"outcome-response-priming-task","full_screen":true,"focus_shifts":0,"block":2},{"rt":null,"prompt":"<div id=\"iti-prompt\">Keep the dot within the square.</div>","direction":"right","range":20,"phase":"learn","trial_type":"html-mouse-response","trial_index":167,"time_elapsed":341256,"internal_node_id":"0.0-2.0-1.0-0.14","subject":1,"condition":"FIXME","correct":"right","exp_id":"outcome-response-priming-task","full_screen":true,"focus_shifts":0,"block":2},{"rt":null,"prompt":null,"direction":"left","range":300,"phase":"learn","stimulus":"orange","outcome":"chocolate","correct_response":"left","trial_type":"html-mouse-response","trial_index":168,"time_elapsed":341824,"internal_node_id":"0.0-2.0-1.0-1.14","subject":1,"condition":"FIXME","correct":true,"exp_id":"outcome-response-priming-task","full_screen":true,"focus_shifts":0,"block":2},{"rt":null,"stimulus":"img/chocolate.jpg","key_press":null,"phase":"learn","correct":true,"trial_type":"image-keyboard-response","trial_index":169,"time_elapsed":344827,"internal_node_id":"0.0-2.0-1.0-2.14-0.14","subject":1,"condition":"FIXME","exp_id":"outcome-response-priming-task","full_screen":true,"focus_shifts":0,"block":2},{"rt":null,"prompt":"<div id=\"iti-prompt\">Keep the dot within the square.</div>","direction":"","range":20,"phase":"learn","trial_type":"html-mouse-response","trial_index":170,"time_elapsed":345080,"internal_node_id":"0.0-2.0-1.0-0.15","subject":1,"condition":"FIXME","correct":"","exp_id":"outcome-response-priming-task","full_screen":true,"focus_shifts":0,"block":2},{"rt":null,"prompt":null,"direction":"left","range":300,"phase":"learn","stimulus":"orange","outcome":"chocolate","correct_response":"left","trial_type":"html-mouse-response","trial_index":171,"time_elapsed":345798,"internal_node_id":"0.0-2.0-1.0-1.15","subject":1,"condition":"FIXME","correct":true,"exp_id":"outcome-response-priming-task","full_screen":true,"focus_shifts":0,"block":2},{"rt":null,"stimulus":"img/chocolate.jpg","key_press":null,"phase":"learn","correct":true,"trial_type":"image-keyboard-response","trial_index":172,"time_elapsed":348800,"internal_node_id":"0.0-2.0-1.0-2.15-0.15","subject":1,"condition":"FIXME","exp_id":"outcome-response-priming-task","full_screen":true,"focus_shifts":0,"block":2},{"rt":null,"prompt":"<div id=\"iti-prompt\">Keep the dot within the square.</div>","direction":"","range":20,"phase":"learn","trial_type":"html-mouse-response","trial_index":173,"time_elapsed":349554,"internal_node_id":"0.0-2.0-1.0-0.16","subject":1,"condition":"FIXME","correct":"","exp_id":"outcome-response-priming-task","full_screen":true,"focus_shifts":0,"block":2},{"rt":null,"prompt":null,"direction":"left","range":300,"phase":"learn","stimulus":"orange","outcome":"chocolate","correct_response":"left","trial_type":"html-mouse-response","trial_index":174,"time_elapsed":350254,"internal_node_id":"0.0-2.0-1.0-1.16","subject":1,"condition":"FIXME","correct":true,"exp_id":"outcome-response-priming-task","full_screen":true,"focus_shifts":0,"block":2},{"rt":null,"stimulus":"img/chocolate.jpg","key_press":null,"phase":"learn","correct":true,"trial_type":"image-keyboard-response","trial_index":175,"time_elapsed":353256,"internal_node_id":"0.0-2.0-1.0-2.16-0.16","subject":1,"condition":"FIXME","exp_id":"outcome-response-priming-task","full_screen":true,"focus_shifts":0,"block":2},{"rt":null,"prompt":"<div id=\"iti-prompt\">Keep the dot within the square.</div>","direction":"left","range":20,"phase":"learn","trial_type":"html-mouse-response","trial_index":176,"time_elapsed":354347,"internal_node_id":"0.0-2.0-1.0-0.17","subject":1,"condition":"FIXME","correct":"left","exp_id":"outcome-response-priming-task","full_screen":true,"focus_shifts":0,"block":2},{"rt":null,"prompt":null,"direction":"right","range":300,"phase":"learn","stimulus":"blue","outcome":"crisp","correct_response":"right","trial_type":"html-mouse-response","trial_index":177,"time_elapsed":354865,"internal_node_id":"0.0-2.0-1.0-1.17","subject":1,"condition":"FIXME","correct":true,"exp_id":"outcome-response-priming-task","full_screen":true,"focus_shifts":0,"block":2},{"rt":null,"stimulus":"img/crisp.jpg","key_press":null,"phase":"learn","correct":true,"trial_type":"image-keyboard-response","trial_index":178,"time_elapsed":357869,"internal_node_id":"0.0-2.0-1.0-2.17-0.17","subject":1,"condition":"FIXME","exp_id":"outcome-response-priming-task","full_screen":true,"focus_shifts":0,"block":2},{"rt":null,"prompt":"<div id=\"iti-prompt\">Keep the dot within the square.</div>","direction":"","range":20,"phase":"learn","trial_type":"html-mouse-response","trial_index":179,"time_elapsed":358122,"internal_node_id":"0.0-2.0-1.0-0.18","subject":1,"condition":"FIXME","correct":"","exp_id":"outcome-response-priming-task","full_screen":true,"focus_shifts":0,"block":2},{"rt":null,"prompt":null,"direction":"left","range":300,"phase":"learn","stimulus":"orange","outcome":"chocolate","correct_response":"left","trial_type":"html-mouse-response","trial_index":180,"time_elapsed":359007,"internal_node_id":"0.0-2.0-1.0-1.18","subject":1,"condition":"FIXME","correct":true,"exp_id":"outcome-response-priming-task","full_screen":true,"focus_shifts":0,"block":2},{"rt":null,"stimulus":"img/chocolate.jpg","key_press":null,"phase":"learn","correct":true,"trial_type":"image-keyboard-response","trial_index":181,"time_elapsed":362009,"internal_node_id":"0.0-2.0-1.0-2.18-0.18","subject":1,"condition":"FIXME","exp_id":"outcome-response-priming-task","full_screen":true,"focus_shifts":0,"block":2},{"rt":null,"prompt":"<div id=\"iti-prompt\">Keep the dot within the square.</div>","direction":"","range":20,"phase":"learn","trial_type":"html-mouse-response","trial_index":182,"time_elapsed":362512,"internal_node_id":"0.0-2.0-1.0-0.19","subject":1,"condition":"FIXME","correct":"","exp_id":"outcome-response-priming-task","full_screen":true,"focus_shifts":0,"block":2},{"rt":null,"prompt":null,"direction":"left","range":300,"phase":"learn","stimulus":"orange","outcome":"chocolate","correct_response":"left","trial_type":"html-mouse-response","trial_index":183,"time_elapsed":363249,"internal_node_id":"0.0-2.0-1.0-1.19","subject":1,"condition":"FIXME","correct":true,"exp_id":"outcome-response-priming-task","full_screen":true,"focus_shifts":0,"block":2},{"rt":null,"stimulus":"img/chocolate.jpg","key_press":null,"phase":"learn","correct":true,"trial_type":"image-keyboard-response","trial_index":184,"time_elapsed":366252,"internal_node_id":"0.0-2.0-1.0-2.19-0.19","subject":1,"condition":"FIXME","exp_id":"outcome-response-priming-task","full_screen":true,"focus_shifts":0,"block":2},{"rt":null,"prompt":"<div id=\"iti-prompt\">Keep the dot within the square.</div>","direction":"","range":20,"phase":"learn","trial_type":"html-mouse-response","trial_index":185,"time_elapsed":366755,"internal_node_id":"0.0-2.0-1.0-0.20","subject":1,"condition":"FIXME","correct":"","exp_id":"outcome-response-priming-task","full_screen":true,"focus_shifts":0,"block":2},{"rt":null,"prompt":null,"direction":"left","range":300,"phase":"learn","stimulus":"orange","outcome":"chocolate","correct_response":"left","trial_type":"html-mouse-response","trial_index":186,"time_elapsed":367405,"internal_node_id":"0.0-2.0-1.0-1.20","subject":1,"condition":"FIXME","correct":true,"exp_id":"outcome-response-priming-task","full_screen":true,"focus_shifts":0,"block":2},{"rt":null,"stimulus":"img/chocolate.jpg","key_press":null,"phase":"learn","correct":true,"trial_type":"image-keyboard-response","trial_index":187,"time_elapsed":370407,"internal_node_id":"0.0-2.0-1.0-2.20-0.20","subject":1,"condition":"FIXME","exp_id":"outcome-response-priming-task","full_screen":true,"focus_shifts":0,"block":2},{"rt":null,"prompt":"<div id=\"iti-prompt\">Keep the dot within the square.</div>","direction":"right","range":20,"phase":"learn","trial_type":"html-mouse-response","trial_index":188,"time_elapsed":370961,"internal_node_id":"0.0-2.0-1.0-0.21","subject":1,"condition":"FIXME","correct":"right","exp_id":"outcome-response-priming-task","full_screen":true,"focus_shifts":0,"block":2},{"rt":null,"prompt":null,"direction":"left","range":300,"phase":"learn","stimulus":"orange","outcome":"chocolate","correct_response":"left","trial_type":"html-mouse-response","trial_index":189,"time_elapsed":371594,"internal_node_id":"0.0-2.0-1.0-1.21","subject":1,"condition":"FIXME","correct":true,"exp_id":"outcome-response-priming-task","full_screen":true,"focus_shifts":0,"block":2},{"rt":null,"stimulus":"img/chocolate.jpg","key_press":null,"phase":"learn","correct":true,"trial_type":"image-keyboard-response","trial_index":190,"time_elapsed":374596,"internal_node_id":"0.0-2.0-1.0-2.21-0.21","subject":1,"condition":"FIXME","exp_id":"outcome-response-priming-task","full_screen":true,"focus_shifts":0,"block":2},{"rt":null,"prompt":"<div id=\"iti-prompt\">Keep the dot within the square.</div>","direction":"left","range":20,"phase":"learn","trial_type":"html-mouse-response","trial_index":191,"time_elapsed":375184,"internal_node_id":"0.0-2.0-1.0-0.22","subject":1,"condition":"FIXME","correct":"left","exp_id":"outcome-response-priming-task","full_screen":true,"focus_shifts":0,"block":2},{"rt":null,"prompt":null,"direction":"right","range":300,"phase":"learn","stimulus":"blue","outcome":"crisp","correct_response":"right","trial_type":"html-mouse-response","trial_index":192,"time_elapsed":376122,"internal_node_id":"0.0-2.0-1.0-1.22","subject":1,"condition":"FIXME","correct":true,"exp_id":"outcome-response-priming-task","full_screen":true,"focus_shifts":0,"block":2},{"rt":null,"stimulus":"img/crisp.jpg","key_press":null,"phase":"learn","correct":true,"trial_type":"image-keyboard-response","trial_index":193,"time_elapsed":379124,"internal_node_id":"0.0-2.0-1.0-2.22-0.22","subject":1,"condition":"FIXME","exp_id":"outcome-response-priming-task","full_screen":true,"focus_shifts":0,"block":2},{"rt":null,"prompt":"<div id=\"iti-prompt\">Keep the dot within the square.</div>","direction":"left","range":20,"phase":"learn","trial_type":"html-mouse-response","trial_index":194,"time_elapsed":379628,"internal_node_id":"0.0-2.0-1.0-0.23","subject":1,"condition":"FIXME","correct":"left","exp_id":"outcome-response-priming-task","full_screen":true,"focus_shifts":0,"block":2},{"rt":null,"prompt":null,"direction":"left","range":300,"phase":"learn","stimulus":"orange","outcome":"chocolate","correct_response":"left","trial_type":"html-mouse-response","trial_index":195,"time_elapsed":380146,"internal_node_id":"0.0-2.0-1.0-1.23","subject":1,"condition":"FIXME","correct":true,"exp_id":"outcome-response-priming-task","full_screen":true,"focus_shifts":0,"block":2},{"rt":null,"stimulus":"img/chocolate.jpg","key_press":null,"phase":"learn","correct":true,"trial_type":"image-keyboard-response","trial_index":196,"time_elapsed":383148,"internal_node_id":"0.0-2.0-1.0-2.23-0.23","subject":1,"condition":"FIXME","exp_id":"outcome-response-priming-task","full_screen":true,"focus_shifts":0,"block":2},{"rt":null,"prompt":"<div id=\"iti-prompt\">Keep the dot within the square.</div>","direction":"right","range":20,"phase":"learn","trial_type":"html-mouse-response","trial_index":197,"time_elapsed":383767,"internal_node_id":"0.0-2.0-1.0-0.24","subject":1,"condition":"FIXME","correct":"right","exp_id":"outcome-response-priming-task","full_screen":true,"focus_shifts":0,"block":2},{"rt":null,"prompt":null,"direction":"left","range":300,"phase":"learn","stimulus":"orange","outcome":"chocolate","correct_response":"left","trial_type":"html-mouse-response","trial_index":198,"time_elapsed":384979,"internal_node_id":"0.0-2.0-1.0-1.24","subject":1,"condition":"FIXME","correct":true,"exp_id":"outcome-response-priming-task","full_screen":true,"focus_shifts":0,"block":2},{"rt":null,"stimulus":"img/chocolate.jpg","key_press":null,"phase":"learn","correct":true,"trial_type":"image-keyboard-response","trial_index":199,"time_elapsed":387982,"internal_node_id":"0.0-2.0-1.0-2.24-0.24","subject":1,"condition":"FIXME","exp_id":"outcome-response-priming-task","full_screen":true,"focus_shifts":0,"block":2},{"rt":null,"prompt":"<div id=\"iti-prompt\">Keep the dot within the square.</div>","direction":"right","range":20,"phase":"learn","trial_type":"html-mouse-response","trial_index":200,"time_elapsed":388400,"internal_node_id":"0.0-2.0-1.0-0.25","subject":1,"condition":"FIXME","correct":"right","exp_id":"outcome-response-priming-task","full_screen":true,"focus_shifts":0,"block":2},{"rt":null,"prompt":null,"direction":"right","range":300,"phase":"learn","stimulus":"blue","outcome":"crisp","correct_response":"right","trial_type":"html-mouse-response","trial_index":201,"time_elapsed":388921,"internal_node_id":"0.0-2.0-1.0-1.25","subject":1,"condition":"FIXME","correct":true,"exp_id":"outcome-response-priming-task","full_screen":true,"focus_shifts":0,"block":2},{"rt":null,"stimulus":"img/crisp.jpg","key_press":null,"phase":"learn","correct":true,"trial_type":"image-keyboard-response","trial_index":202,"time_elapsed":391924,"internal_node_id":"0.0-2.0-1.0-2.25-0.25","subject":1,"condition":"FIXME","exp_id":"outcome-response-priming-task","full_screen":true,"focus_shifts":0,"block":2},{"rt":null,"prompt":"<div id=\"iti-prompt\">Keep the dot within the square.</div>","direction":"left","range":20,"phase":"learn","trial_type":"html-mouse-response","trial_index":203,"time_elapsed":392544,"internal_node_id":"0.0-2.0-1.0-0.26","subject":1,"condition":"FIXME","correct":"left","exp_id":"outcome-response-priming-task","full_screen":true,"focus_shifts":0,"block":2},{"rt":null,"prompt":null,"direction":"left","range":300,"phase":"learn","stimulus":"orange","outcome":"chocolate","correct_response":"left","trial_type":"html-mouse-response","trial_index":204,"time_elapsed":393345,"internal_node_id":"0.0-2.0-1.0-1.26","subject":1,"condition":"FIXME","correct":true,"exp_id":"outcome-response-priming-task","full_screen":true,"focus_shifts":0,"block":2},{"rt":null,"stimulus":"img/chocolate.jpg","key_press":null,"phase":"learn","correct":true,"trial_type":"image-keyboard-response","trial_index":205,"time_elapsed":396347,"internal_node_id":"0.0-2.0-1.0-2.26-0.26","subject":1,"condition":"FIXME","exp_id":"outcome-response-priming-task","full_screen":true,"focus_shifts":0,"block":2},{"rt":null,"prompt":"<div id=\"iti-prompt\">Keep the dot within the square.</div>","direction":"left","range":20,"phase":"learn","trial_type":"html-mouse-response","trial_index":206,"time_elapsed":396802,"internal_node_id":"0.0-2.0-1.0-0.27","subject":1,"condition":"FIXME","correct":"left","exp_id":"outcome-response-priming-task","full_screen":true,"focus_shifts":0,"block":2},{"rt":null,"prompt":null,"direction":"left","range":300,"phase":"learn","stimulus":"orange","outcome":"chocolate","correct_response":"left","trial_type":"html-mouse-response","trial_index":207,"time_elapsed":397420,"internal_node_id":"0.0-2.0-1.0-1.27","subject":1,"condition":"FIXME","correct":true,"exp_id":"outcome-response-priming-task","full_screen":true,"focus_shifts":0,"block":2},{"rt":null,"stimulus":"img/chocolate.jpg","key_press":null,"phase":"learn","correct":true,"trial_type":"image-keyboard-response","trial_index":208,"time_elapsed":400423,"internal_node_id":"0.0-2.0-1.0-2.27-0.27","subject":1,"condition":"FIXME","exp_id":"outcome-response-priming-task","full_screen":true,"focus_shifts":0,"block":2},{"rt":null,"prompt":"<div id=\"iti-prompt\">Keep the dot within the square.</div>","direction":"left","range":20,"phase":"learn","trial_type":"html-mouse-response","trial_index":209,"time_elapsed":401127,"internal_node_id":"0.0-2.0-1.0-0.28","subject":1,"condition":"FIXME","correct":"left","exp_id":"outcome-response-priming-task","full_screen":true,"focus_shifts":0,"block":2},{"rt":null,"prompt":null,"direction":"right","range":300,"phase":"learn","stimulus":"blue","outcome":"crisp","correct_response":"right","trial_type":"html-mouse-response","trial_index":210,"time_elapsed":401662,"internal_node_id":"0.0-2.0-1.0-1.28","subject":1,"condition":"FIXME","correct":true,"exp_id":"outcome-response-priming-task","full_screen":true,"focus_shifts":0,"block":2},{"rt":null,"stimulus":"img/crisp.jpg","key_press":null,"phase":"learn","correct":true,"trial_type":"image-keyboard-response","trial_index":211,"time_elapsed":404665,"internal_node_id":"0.0-2.0-1.0-2.28-0.28","subject":1,"condition":"FIXME","exp_id":"outcome-response-priming-task","full_screen":true,"focus_shifts":0,"block":2},{"rt":null,"prompt":"<div id=\"iti-prompt\">Keep the dot within the square.</div>","direction":"left","range":20,"phase":"learn","trial_type":"html-mouse-response","trial_index":212,"time_elapsed":405169,"internal_node_id":"0.0-2.0-1.0-0.29","subject":1,"condition":"FIXME","correct":"left","exp_id":"outcome-response-priming-task","full_screen":true,"focus_shifts":0,"block":2},{"rt":null,"prompt":null,"direction":"left","range":300,"phase":"learn","stimulus":"orange","outcome":"chocolate","correct_response":"left","trial_type":"html-mouse-response","trial_index":213,"time_elapsed":406037,"internal_node_id":"0.0-2.0-1.0-1.29","subject":1,"condition":"FIXME","correct":true,"exp_id":"outcome-response-priming-task","full_screen":true,"focus_shifts":0,"block":2},{"rt":null,"stimulus":"img/chocolate.jpg","key_press":null,"phase":"learn","correct":true,"trial_type":"image-keyboard-response","trial_index":214,"time_elapsed":409040,"internal_node_id":"0.0-2.0-1.0-2.29-0.29","subject":1,"condition":"FIXME","exp_id":"outcome-response-priming-task","full_screen":true,"focus_shifts":0,"block":2},{"rt":null,"prompt":"<div id=\"iti-prompt\">Keep the dot within the square.</div>","direction":"","range":20,"phase":"learn","trial_type":"html-mouse-response","trial_index":215,"time_elapsed":409792,"internal_node_id":"0.0-2.0-1.0-0.30","subject":1,"condition":"FIXME","correct":"","exp_id":"outcome-response-priming-task","full_screen":true,"focus_shifts":0,"block":2},{"rt":null,"prompt":null,"direction":"left","range":300,"phase":"learn","stimulus":"orange","outcome":"chocolate","correct_response":"left","trial_type":"html-mouse-response","trial_index":216,"time_elapsed":411768,"internal_node_id":"0.0-2.0-1.0-1.30","subject":1,"condition":"FIXME","correct":true,"exp_id":"outcome-response-priming-task","full_screen":true,"focus_shifts":0,"block":2},{"rt":null,"stimulus":"img/chocolate.jpg","key_press":null,"phase":"learn","correct":true,"trial_type":"image-keyboard-response","trial_index":217,"time_elapsed":414770,"internal_node_id":"0.0-2.0-1.0-2.30-0.30","subject":1,"condition":"FIXME","exp_id":"outcome-response-priming-task","full_screen":true,"focus_shifts":0,"block":2},{"rt":null,"prompt":"<div id=\"iti-prompt\">Keep the dot within the square.</div>","direction":"left","range":20,"phase":"learn","trial_type":"html-mouse-response","trial_index":218,"time_elapsed":415542,"internal_node_id":"0.0-2.0-1.0-0.31","subject":1,"condition":"FIXME","correct":"left","exp_id":"outcome-response-priming-task","full_screen":true,"focus_shifts":0,"block":2},{"rt":null,"prompt":null,"direction":"left","range":300,"phase":"learn","stimulus":"blue","outcome":"crisp","correct_response":"right","trial_type":"html-mouse-response","trial_index":219,"time_elapsed":416195,"internal_node_id":"0.0-2.0-1.0-1.31","subject":1,"condition":"FIXME","correct":false,"exp_id":"outcome-response-priming-task","full_screen":true,"focus_shifts":0,"block":2},{"rt":null,"prompt":"<div id=\"iti-prompt\">Keep the dot within the square.</div>","direction":"left","range":20,"phase":"learn","trial_type":"html-mouse-response","trial_index":220,"time_elapsed":416230,"internal_node_id":"0.0-2.0-1.0-0.32","subject":1,"condition":"FIXME","correct":"left","exp_id":"outcome-response-priming-task","full_screen":true,"focus_shifts":0,"block":2},{"rt":null,"prompt":null,"direction":"right","range":300,"phase":"learn","stimulus":"blue","outcome":"crisp","correct_response":"right","trial_type":"html-mouse-response","trial_index":221,"time_elapsed":420392,"internal_node_id":"0.0-2.0-1.0-1.32","subject":1,"condition":"FIXME","correct":true,"exp_id":"outcome-response-priming-task","full_screen":true,"focus_shifts":0,"block":2},{"rt":null,"stimulus":"img/crisp.jpg","key_press":null,"phase":"learn","correct":true,"trial_type":"image-keyboard-response","trial_index":222,"time_elapsed":423394,"internal_node_id":"0.0-2.0-1.0-2.32-0.32","subject":1,"condition":"FIXME","exp_id":"outcome-response-priming-task","full_screen":true,"focus_shifts":0,"block":2},{"rt":null,"prompt":"<div id=\"iti-prompt\">Keep the dot within the square.</div>","direction":"","range":20,"phase":"learn","trial_type":"html-mouse-response","trial_index":223,"time_elapsed":423646,"internal_node_id":"0.0-2.0-1.0-0.33","subject":1,"condition":"FIXME","correct":"","exp_id":"outcome-response-priming-task","full_screen":true,"focus_shifts":0,"block":2},{"rt":null,"prompt":null,"direction":"left","range":300,"phase":"learn","stimulus":"blue","outcome":"crisp","correct_response":"right","trial_type":"html-mouse-response","trial_index":224,"time_elapsed":424720,"internal_node_id":"0.0-2.0-1.0-1.33","subject":1,"condition":"FIXME","correct":false,"exp_id":"outcome-response-priming-task","full_screen":true,"focus_shifts":0,"block":2},{"rt":null,"stimulus":"img/incorrect.jpg","key_press":null,"phase":"learn","correct":false,"trial_type":"image-keyboard-response","trial_index":225,"time_elapsed":427722,"internal_node_id":"0.0-2.0-1.0-3.33-0.33","subject":1,"condition":"FIXME","exp_id":"outcome-response-priming-task","full_screen":true,"focus_shifts":0,"block":2},{"rt":null,"prompt":"<div id=\"iti-prompt\">Keep the dot within the square.</div>","direction":"left","range":20,"phase":"learn","trial_type":"html-mouse-response","trial_index":226,"time_elapsed":428885,"internal_node_id":"0.0-2.0-1.0-0.34","subject":1,"condition":"FIXME","correct":"left","exp_id":"outcome-response-priming-task","full_screen":true,"focus_shifts":0,"block":2},{"rt":null,"prompt":null,"direction":"left","range":300,"phase":"learn","stimulus":"blue","outcome":"crisp","correct_response":"right","trial_type":"html-mouse-response","trial_index":227,"time_elapsed":430134,"internal_node_id":"0.0-2.0-1.0-1.34","subject":1,"condition":"FIXME","correct":false,"exp_id":"outcome-response-priming-task","full_screen":true,"focus_shifts":0,"block":2},{"rt":null,"prompt":"<div id=\"iti-prompt\">Keep the dot within the square.</div>","direction":"left","range":20,"phase":"learn","trial_type":"html-mouse-response","trial_index":228,"time_elapsed":430168,"internal_node_id":"0.0-2.0-1.0-0.35","subject":1,"condition":"FIXME","correct":"left","exp_id":"outcome-response-priming-task","full_screen":true,"focus_shifts":0,"block":2},{"rt":null,"prompt":null,"direction":"right","range":300,"phase":"learn","stimulus":"orange","outcome":"chocolate","correct_response":"left","trial_type":"html-mouse-response","trial_index":229,"time_elapsed":437166,"internal_node_id":"0.0-2.0-1.0-1.35","subject":1,"condition":"FIXME","correct":false,"exp_id":"outcome-response-priming-task","full_screen":true,"focus_shifts":0,"block":2},{"rt":null,"prompt":"<div id=\"iti-prompt\">Keep the dot within the square.</div>","direction":"right","range":20,"phase":"learn","trial_type":"html-mouse-response","trial_index":230,"time_elapsed":437199,"internal_node_id":"0.0-2.0-1.0-0.36","subject":1,"condition":"FIXME","correct":"right","exp_id":"outcome-response-priming-task","full_screen":true,"focus_shifts":0,"block":2},{"rt":null,"prompt":null,"direction":"right","range":300,"phase":"learn","stimulus":"orange","outcome":"chocolate","correct_response":"left","trial_type":"html-mouse-response","trial_index":231,"time_elapsed":441192,"internal_node_id":"0.0-2.0-1.0-1.36","subject":1,"condition":"FIXME","correct":false,"exp_id":"outcome-response-priming-task","full_screen":true,"focus_shifts":0,"block":2},{"rt":null,"prompt":"<div id=\"iti-prompt\">Keep the dot within the square.</div>","direction":"right","range":20,"phase":"learn","trial_type":"html-mouse-response","trial_index":232,"time_elapsed":441209,"internal_node_id":"0.0-2.0-1.0-0.37","subject":1,"condition":"FIXME","correct":"right","exp_id":"outcome-response-priming-task","full_screen":true,"focus_shifts":0,"block":2},{"rt":null,"prompt":null,"direction":"left","range":300,"phase":"learn","stimulus":"blue","outcome":"crisp","correct_response":"right","trial_type":"html-mouse-response","trial_index":233,"time_elapsed":445047,"internal_node_id":"0.0-2.0-1.0-1.37","subject":1,"condition":"FIXME","correct":false,"exp_id":"outcome-response-priming-task","full_screen":true,"focus_shifts":0,"block":2},{"rt":null,"prompt":"<div id=\"iti-prompt\">Keep the dot within the square.</div>","direction":"right","range":20,"phase":"learn","trial_type":"html-mouse-response","trial_index":234,"time_elapsed":445064,"internal_node_id":"0.0-2.0-1.0-0.38","subject":1,"condition":"FIXME","correct":"right","exp_id":"outcome-response-priming-task","full_screen":true,"focus_shifts":0,"block":2},{"rt":null,"prompt":null,"direction":"right","range":300,"phase":"learn","stimulus":"orange","outcome":"chocolate","correct_response":"left","trial_type":"html-mouse-response","trial_index":235,"time_elapsed":450848,"internal_node_id":"0.0-2.0-1.0-1.38","subject":1,"condition":"FIXME","correct":false,"exp_id":"outcome-response-priming-task","full_screen":true,"focus_shifts":0,"block":2},{"rt":null,"prompt":"<div id=\"iti-prompt\">Keep the dot within the square.</div>","direction":"right","range":20,"phase":"learn","trial_type":"html-mouse-response","trial_index":236,"time_elapsed":450863,"internal_node_id":"0.0-2.0-1.0-0.39","subject":1,"condition":"FIXME","correct":"right","exp_id":"outcome-response-priming-task","full_screen":true,"focus_shifts":0,"block":2},{"rt":null,"prompt":null,"direction":"left","range":300,"phase":"learn","stimulus":"blue","outcome":"crisp","correct_response":"right","trial_type":"html-mouse-response","trial_index":237,"time_elapsed":454865,"internal_node_id":"0.0-2.0-1.0-1.39","subject":1,"condition":"FIXME","correct":false,"exp_id":"outcome-response-priming-task","full_screen":true,"focus_shifts":0,"block":2},{"rt":null,"prompt":"<div id=\"iti-prompt\">Keep the dot within the square.</div>","direction":"right","range":20,"phase":"learn","trial_type":"html-mouse-response","trial_index":238,"time_elapsed":454882,"internal_node_id":"0.0-2.0-1.0-0.40","subject":1,"condition":"FIXME","correct":"right","exp_id":"outcome-response-priming-task","full_screen":true,"focus_shifts":0,"block":2},{"rt":null,"prompt":null,"direction":"left","range":300,"phase":"learn","stimulus":"blue","outcome":"crisp","correct_response":"right","trial_type":"html-mouse-response","trial_index":239,"time_elapsed":455712,"internal_node_id":"0.0-2.0-1.0-1.40","subject":1,"condition":"FIXME","correct":false,"exp_id":"outcome-response-priming-task","full_screen":true,"focus_shifts":0,"block":2},{"rt":null,"prompt":"<div id=\"iti-prompt\">Keep the dot within the square.</div>","direction":"right","range":20,"phase":"learn","trial_type":"html-mouse-response","trial_index":240,"time_elapsed":455729,"internal_node_id":"0.0-2.0-1.0-0.41","subject":1,"condition":"FIXME","correct":"right","exp_id":"outcome-response-priming-task","full_screen":true,"focus_shifts":0,"block":2},{"rt":null,"prompt":null,"direction":"left","range":300,"phase":"learn","stimulus":"orange","outcome":"chocolate","correct_response":"left","trial_type":"html-mouse-response","trial_index":241,"time_elapsed":458515,"internal_node_id":"0.0-2.0-1.0-1.41","subject":1,"condition":"FIXME","correct":true,"exp_id":"outcome-response-priming-task","full_screen":true,"focus_shifts":0,"block":2},{"rt":null,"stimulus":"img/chocolate.jpg","key_press":null,"phase":"learn","correct":true,"trial_type":"image-keyboard-response","trial_index":242,"time_elapsed":461517,"internal_node_id":"0.0-2.0-1.0-2.41-0.41","subject":1,"condition":"FIXME","exp_id":"outcome-response-priming-task","full_screen":true,"focus_shifts":0,"block":2},{"rt":null,"prompt":"<div id=\"iti-prompt\">Keep the dot within the square.</div>","direction":"","range":20,"phase":"learn","trial_type":"html-mouse-response","trial_index":243,"time_elapsed":463021,"internal_node_id":"0.0-2.0-1.0-0.42","subject":1,"condition":"FIXME","correct":"","exp_id":"outcome-response-priming-task","full_screen":true,"focus_shifts":0,"block":2},{"rt":null,"prompt":null,"direction":"left","range":300,"phase":"learn","stimulus":"blue","outcome":"crisp","correct_response":"right","trial_type":"html-mouse-response","trial_index":244,"time_elapsed":464349,"internal_node_id":"0.0-2.0-1.0-1.42","subject":1,"condition":"FIXME","correct":false,"exp_id":"outcome-response-priming-task","full_screen":true,"focus_shifts":0,"block":2},{"rt":null,"stimulus":"img/incorrect.jpg","key_press":null,"phase":"learn","correct":false,"trial_type":"image-keyboard-response","trial_index":245,"time_elapsed":467351,"internal_node_id":"0.0-2.0-1.0-3.42-0.42","subject":1,"condition":"FIXME","exp_id":"outcome-response-priming-task","full_screen":true,"focus_shifts":0,"block":2},{"rt":null,"prompt":"<div id=\"iti-prompt\">Keep the dot within the square.</div>","direction":"","range":20,"phase":"learn","trial_type":"html-mouse-response","trial_index":246,"time_elapsed":467604,"internal_node_id":"0.0-2.0-1.0-0.43","subject":1,"condition":"FIXME","correct":"","exp_id":"outcome-response-priming-task","full_screen":true,"focus_shifts":0,"block":2},{"rt":null,"prompt":null,"direction":"right","range":300,"phase":"learn","stimulus":"orange","outcome":"chocolate","correct_response":"left","trial_type":"html-mouse-response","trial_index":247,"time_elapsed":469653,"internal_node_id":"0.0-2.0-1.0-1.43","subject":1,"condition":"FIXME","correct":false,"exp_id":"outcome-response-priming-task","full_screen":true,"focus_shifts":0,"block":2},{"rt":null,"stimulus":"img/incorrect.jpg","key_press":null,"phase":"learn","correct":false,"trial_type":"image-keyboard-response","trial_index":248,"time_elapsed":472656,"internal_node_id":"0.0-2.0-1.0-3.43-0.43","subject":1,"condition":"FIXME","exp_id":"outcome-response-priming-task","full_screen":true,"focus_shifts":0,"block":2},{"rt":null,"prompt":"<div id=\"iti-prompt\">Keep the dot within the square.</div>","direction":"","range":20,"phase":"learn","trial_type":"html-mouse-response","trial_index":249,"time_elapsed":474409,"internal_node_id":"0.0-2.0-1.0-0.44","subject":1,"condition":"FIXME","correct":"","exp_id":"outcome-response-priming-task","full_screen":true,"focus_shifts":0,"block":2},{"rt":null,"prompt":null,"direction":"left","range":300,"phase":"learn","stimulus":"blue","outcome":"crisp","correct_response":"right","trial_type":"html-mouse-response","trial_index":250,"time_elapsed":475901,"internal_node_id":"0.0-2.0-1.0-1.44","subject":1,"condition":"FIXME","correct":false,"exp_id":"outcome-response-priming-task","full_screen":true,"focus_shifts":0,"block":2},{"rt":null,"stimulus":"img/incorrect.jpg","key_press":null,"phase":"learn","correct":false,"trial_type":"image-keyboard-response","trial_index":251,"time_elapsed":478903,"internal_node_id":"0.0-2.0-1.0-3.44-0.44","subject":1,"condition":"FIXME","exp_id":"outcome-response-priming-task","full_screen":true,"focus_shifts":0,"block":2},{"rt":null,"prompt":"<div id=\"iti-prompt\">Keep the dot within the square.</div>","direction":"","range":20,"phase":"learn","trial_type":"html-mouse-response","trial_index":252,"time_elapsed":480906,"internal_node_id":"0.0-2.0-1.0-0.45","subject":1,"condition":"FIXME","correct":"","exp_id":"outcome-response-priming-task","full_screen":true,"focus_shifts":0,"block":2},{"rt":null,"prompt":null,"direction":"right","range":300,"phase":"learn","stimulus":"orange","outcome":"chocolate","correct_response":"left","trial_type":"html-mouse-response","trial_index":253,"time_elapsed":482986,"internal_node_id":"0.0-2.0-1.0-1.45","subject":1,"condition":"FIXME","correct":false,"exp_id":"outcome-response-priming-task","full_screen":true,"focus_shifts":0,"block":2},{"rt":null,"stimulus":"img/incorrect.jpg","key_press":null,"phase":"learn","correct":false,"trial_type":"image-keyboard-response","trial_index":254,"time_elapsed":485989,"internal_node_id":"0.0-2.0-1.0-3.45-0.45","subject":1,"condition":"FIXME","exp_id":"outcome-response-priming-task","full_screen":true,"focus_shifts":0,"block":2},{"rt":null,"prompt":"<div id=\"iti-prompt\">Keep the dot within the square.</div>","direction":"","range":20,"phase":"learn","trial_type":"html-mouse-response","trial_index":255,"time_elapsed":487492,"internal_node_id":"0.0-2.0-1.0-0.46","subject":1,"condition":"FIXME","correct":"","exp_id":"outcome-response-priming-task","full_screen":true,"focus_shifts":0,"block":2},{"rt":null,"prompt":null,"direction":"left","range":300,"phase":"learn","stimulus":"blue","outcome":"crisp","correct_response":"right","trial_type":"html-mouse-response","trial_index":256,"time_elapsed":488806,"internal_node_id":"0.0-2.0-1.0-1.46","subject":1,"condition":"FIXME","correct":false,"exp_id":"outcome-response-priming-task","full_screen":true,"focus_shifts":0,"block":2},{"rt":null,"stimulus":"img/incorrect.jpg","key_press":null,"phase":"learn","correct":false,"trial_type":"image-keyboard-response","trial_index":257,"time_elapsed":491808,"internal_node_id":"0.0-2.0-1.0-3.46-0.46","subject":1,"condition":"FIXME","exp_id":"outcome-response-priming-task","full_screen":true,"focus_shifts":0,"block":2},{"rt":null,"prompt":"<div id=\"iti-prompt\">Keep the dot within the square.</div>","direction":"right","range":20,"phase":"learn","trial_type":"html-mouse-response","trial_index":258,"time_elapsed":492395,"internal_node_id":"0.0-2.0-1.0-0.47","subject":1,"condition":"FIXME","correct":"right","exp_id":"outcome-response-priming-task","full_screen":true,"focus_shifts":0,"block":2},{"rt":null,"prompt":null,"direction":"left","range":300,"phase":"learn","stimulus":"blue","outcome":"crisp","correct_response":"right","trial_type":"html-mouse-response","trial_index":259,"time_elapsed":494232,"internal_node_id":"0.0-2.0-1.0-1.47","subject":1,"condition":"FIXME","correct":false,"exp_id":"outcome-response-priming-task","full_screen":true,"focus_shifts":0,"block":2},{"rt":1718,"stimulus":"<p>In this part of the experiment, you will see a picture of either crisp or chocolate for a few seconds. When the picture first disappears, don't move the mouse as you will lose points.<p>When the screen changes colour, if you saw <strong>crisp</strong>, move the dot past the <strong>right</strong> line, or if you saw <strong>chocolate</strong>, move the dot past the <strong>left</strong> line. Respond as quickly and accurately as you can.</p><p>Press any key to begin.</p>","key_press":32,"phase":"test","trial_type":"html-keyboard-response","trial_index":260,"time_elapsed":495954,"internal_node_id":"0.0-2.0-2.0","subject":1,"condition":"FIXME","exp_id":"outcome-response-priming-task","full_screen":true,"focus_shifts":0,"block":2},{"rt":null,"stimulus":"blue","key_press":null,"phase":"test","trial":4,"outcome":"crisp","delay":4,"correct_response":"right","trial_type":"html-keyboard-response","trial_index":261,"time_elapsed":500456,"internal_node_id":"0.0-2.0-3.0-0.0","subject":1,"condition":"FIXME","exp_id":"outcome-response-priming-task","full_screen":true,"focus_shifts":0,"block":2},{"rt":null,"stimulus":"blue","key_press":null,"phase":"test","trial":4,"outcome":"crisp","delay":4,"correct_response":"right","trial_type":"image-keyboard-response","trial_index":262,"time_elapsed":503458,"internal_node_id":"0.0-2.0-3.0-1.0","subject":1,"condition":"FIXME","exp_id":"outcome-response-priming-task","full_screen":true,"focus_shifts":0,"block":2},{"rt":null,"prompt":"<div id=\"distraction-prompt\">Keep the dot within the square.</div>","direction":"right","range":20,"phase":"test","trial":4,"outcome":"crisp","delay":4,"stimulus":"blue","correct_response":"right","trial_type":"html-mouse-response","trial_index":263,"time_elapsed":504691,"internal_node_id":"0.0-2.0-3.0-2.0","subject":1,"condition":"FIXME","correct":"right","exp_id":"outcome-response-priming-task","full_screen":true,"focus_shifts":0,"block":2},{"rt":null,"prompt":null,"direction":"right","range":300,"phase":"test","trial":4,"outcome":"crisp","delay":4,"stimulus":"blue","correct_response":"right","trial_type":"html-mouse-response","trial_index":264,"time_elapsed":505628,"internal_node_id":"0.0-2.0-3.0-3.0","subject":1,"condition":"FIXME","correct":true,"exp_id":"outcome-response-priming-task","full_screen":true,"focus_shifts":0,"block":2},{"rt":null,"stimulus":"blue","key_press":null,"phase":"test","trial":12,"outcome":"chocolate","delay":2,"correct_response":"left","trial_type":"html-keyboard-response","trial_index":265,"time_elapsed":508130,"internal_node_id":"0.0-2.0-3.0-0.1","subject":1,"condition":"FIXME","exp_id":"outcome-response-priming-task","full_screen":true,"focus_shifts":0,"block":2},{"rt":null,"stimulus":"blue","key_press":null,"phase":"test","trial":12,"outcome":"chocolate","delay":2,"correct_response":"left","trial_type":"image-keyboard-response","trial_index":266,"time_elapsed":511134,"internal_node_id":"0.0-2.0-3.0-1.1","subject":1,"condition":"FIXME","exp_id":"outcome-response-priming-task","full_screen":true,"focus_shifts":0,"block":2},{"rt":null,"prompt":"<div id=\"distraction-prompt\">Keep the dot within the square.</div>","direction":"","range":20,"phase":"test","trial":12,"outcome":"chocolate","delay":2